Timestamp,Acc_X,Acc_Y,Acc_Z,AngV_X,AngV_Y,AngV_Z,Mag_X,Mag_Y,Mag_Z,Orin_X,Orin_Y,Orin_Z,Activity
27:14.3,-0.828527,6.819369,6.082751,0.106861,-0.136901,-0.028743,18.799908,-40.172142,-14.525543,-84.940848,-43.786046,12.547262,0
27:14.4,-0.869392,7.109765,5.741461,0.208681,-0.095884,-0.132885,19.325588,-40.458717,-14.346252,-83.67517,-44.410081,12.405552,0
27:14.5,-0.476609,7.713609,6.197412,-0.122333,-0.185085,-0.10985,19.180923,-39.64444,-15.834106,-83.621673,-43.11406,10.706334,0
27:14.6,-0.544268,7.611522,5.239105,-0.094719,-0.334172,-0.025198,19.579174,-39.599915,-15.627655,-82.318736,-43.057608,9.723761,0
27:14.7,-0.925226,7.606432,5.177883,0.006501,-0.246699,-0.403404,20.842285,-38.593605,-16.728638,-79.091831,-42.420334,10.044659,0
27:14.8,-1.104403,8.42987,6.162236,-0.069005,-0.445069,-0.369411,21.234528,-37.233109,-17.576202,-76.968309,-41.657488,8.413065,0
27:14.9,-2.234404,7.257658,8.198451,-0.095935,-0.491103,-0.281697,21.925571,-35.908714,-18.862122,-74.448163,-40.055305,7.796122,0
27:15.0,-2.41897,6.445746,10.779534,-0.487758,0.196722,-0.506319,22.947159,-33.729507,-21.435303,-73.223894,-35.738597,9.060662,0
27:15.1,-1.75061,4.194278,8.483608,-0.876695,-0.485186,0.142038,22.484028,-32.948349,-22.798828,-73.913149,-33.977514,7.887633,0
27:15.2,-2.103127,5.464237,5.433251,-0.185848,-0.077177,-0.278906,23.081684,-32.569908,-22.50174,-73.495797,-34.1068,8.922516,0
27:15.3,-1.232836,6.409222,6.222859,0.640249,0.089344,0.086275,23.042473,-33.860649,-20.257294,-73.849685,-37.354396,10.411402,0
27:15.4,-0.459544,6.289321,7.982899,0.656452,0.455441,-0.038874,24.099613,-34.121246,-18.285492,-71.829983,-39.693427,13.196676,0
27:15.5,-0.095352,6.560108,10.059232,-0.011059,0.087327,-0.035612,23.130337,-33.21656,-19.487274,-72.816264,-38.191019,10.779357,0
27:15.6,0.011227,5.783523,7.933502,-0.477407,-0.792506,0.075588,22.061108,-32.299789,-21.695343,-72.312263,-36.81234,7.125651,0
27:15.7,-0.714015,4.264332,5.709876,-0.22433,-0.615436,-0.331633,22.548954,-30.217247,-23.756622,-68.457013,-34.581635,6.527495,0
27:15.8,-1.944606,6.386769,6.441854,0.230721,-0.462748,-0.545044,22.481701,-29.593178,-24.357727,-65.271325,-36.048565,4.763502,0
27:15.9,-2.765499,6.64573,9.113947,0.159332,-0.418182,-0.37968,22.54583,-28.700264,-24.14447,-62.175165,-36.508858,5.059699,0
27:16.0,-2.814747,6.962022,8.86771,0.342398,0.577875,0.232864,22.916729,-29.951874,-21.576111,-65.090933,-38.349482,7.800257,0
27:16.1,-0.845592,5.595065,8.730295,-0.220003,0.337989,0.557709,21.709911,-30.541512,-21.422394,-68.897496,-37.688749,7.099382,0
27:16.2,-1.391506,4.551884,5.216652,-0.577229,-0.011611,-0.027561,21.932961,-29.4142,-22.015442,-69.178297,-35.586893,8.633015,0
27:16.3,0.149689,5.449717,6.909781,0.465129,0.439449,0.290662,20.529961,-31.104507,-20.818451,-71.892659,-38.177207,7.545847,0
27:16.4,0.30282,5.35212,8.501272,0.483292,-0.111189,0.020331,20.801651,-31.399742,-20.124176,-69.860603,-40.166566,7.946041,0
27:16.5,0.624202,5.951174,10.578053,0.073647,-0.24683,-0.391701,19.978268,-29.665131,-22.289764,-68.392489,-37.426518,6.891856,0
27:16.6,0.882116,6.022726,8.740923,-0.68408,-1.009502,0.076734,18.51503,-28.568169,-24.994324,-68.956117,-34.912945,2.389356,0
27:16.7,-1.565295,5.217251,4.643344,-0.425542,-0.451282,-0.626429,19.38382,-27.743996,-25.223389,-65.180297,-34.872914,2.791118,0
27:16.8,-3.301534,5.742059,6.622528,0.931946,-0.653926,-0.38475,18.244404,-29.051025,-24.645538,-62.88264,-39.155263,0.016846,0
27:16.9,-3.041675,6.906338,8.056247,0.362868,-0.297017,-0.102514,18.336708,-29.893829,-23.354401,-63.793833,-41.038149,0.880861,0
27:17.0,1.044079,6.410869,11.297756,-0.081423,1.051076,0.747094,16.776356,-29.884811,-24.910492,-70.228728,-37.359356,-0.18665,0
27:17.1,0.420476,4.864883,7.850425,-0.292632,0.567293,1.144729,16.19846,-29.906548,-25.779755,-74.058014,-34.809129,0.346323,0
27:17.2,-0.412991,4.542604,5.062622,-0.379854,1.205087,-0.186052,18.425922,-30.923454,-23.882843,-74.278901,-36.313874,5.544546,0
27:17.3,1.526975,4.833598,8.4878,0.733976,0.054644,0.583428,17.060532,-32.817261,-22.410156,-76.307195,-39.494804,3.569258,0
27:17.4,0.11541,7.084318,9.993069,-0.021602,-0.134151,-0.305981,17.706448,-31.932381,-23.593842,-73.412738,-38.145311,3.833201,0
27:17.5,0.12005,6.590345,9.799971,-1.227975,-0.881167,-0.557283,17.128647,-29.723091,-27.695068,-71.117946,-33.342944,0.961195,0
27:17.6,-0.177231,4.399501,7.228019,-0.007392,-0.411847,-0.226627,17.03513,-28.71949,-29.414459,-68.413964,-32.413645,-0.678584,0
27:17.7,-1.083297,4.611011,5.07789,0.491229,-0.018363,-0.18234,17.11467,-31.466789,-26.946259,-68.065851,-37.29577,-0.703646,0
27:17.8,-2.16405,4.64993,7.856862,1.046915,0.097924,0.21377,17.904324,-33.460167,-24.789062,-67.517836,-41.152455,0.372877,0
27:17.9,-1.744772,6.72746,10.495275,-0.220738,0.612204,0.119049,17.350006,-33.624405,-25.033722,-72.287896,-38.336948,1.951744,0
27:18.0,-0.230221,5.926925,9.729318,-1.319953,0.675231,0.80476,15.395878,-33.395699,-26.810669,-79.953001,-34.080074,0.920702,0
27:18.2,-0.497565,4.810247,5.360503,-0.56722,0.496924,0.227683,17.210464,-32.404915,-27.735413,-81.735901,-30.37653,5.437344,0
27:18.2,0.516576,5.42921,7.329808,0.249631,0.710159,0.545812,15.727951,-34.408646,-26.094543,-85.055765,-33.067846,5.142578,0
27:18.4,1.202899,5.200635,9.998009,0.654347,-2.10E-05,0.13549,15.627728,-35.81369,-25.014252,-83.450351,-36.205864,4.887215,0
27:18.5,0.858764,5.651348,10.195149,-0.205836,-0.435869,-0.521123,15.583439,-34.706963,-26.872955,-80.569681,-33.809935,2.657816,0
27:18.6,1.545386,4.942123,9.845177,-0.383144,-1.201704,-0.37606,14.482433,-32.896812,-30.270569,-77.104463,-31.412802,-1.868301,0
27:18.7,-0.573757,4.33289,4.982389,-0.343015,-1.017452,-0.781081,13.945789,-32.298683,-31.051849,-72.243594,-32.232389,-4.293772,0
27:18.8,-2.22183,5.923931,7.379205,0.744701,-1.154452,-0.396217,11.236633,-33.811119,-30.874786,-70.435075,-35.518578,-11.072906,0
27:18.9,-4.402645,7.093299,9.216784,0.114101,-0.766152,-0.616433,13.235229,-33.21624,-30.679657,-66.427796,-36.418391,-8.0285,0
27:19.0,0.282014,4.930597,12.250675,0.005674,1.193274,0.361523,13.468307,-33.350311,-30.324036,-69.937624,-34.944249,-6.634297,0
27:19.1,1.22146,3.759283,9.618548,0.129429,0.815092,0.993988,14.838066,-33.749138,-28.943756,-74.25696,-33.552045,-1.36145,0
27:19.2,1.27924,3.976331,4.417913,-0.769791,1.125789,0.105933,16.551044,-34.166649,-27.579376,-78.324603,-33.818286,3.602661,0
27:19.3,1.654809,3.939957,6.973848,1.08159,0.857703,1.244836,14.850418,-37.922615,-24.146393,-83.54247,-38.059132,2.983207,0
27:19.4,0.729134,5.61198,9.112301,-0.069432,0.012946,-0.736885,17.880486,-35.772568,-25.348999,-77.504628,-35.760977,6.197737,0
27:19.5,2.066153,6.301895,12.347972,-1.126359,-0.408717,-0.791946,17.827641,-31.608185,-30.342285,-74.841785,-28.541569,3.76141,0
27:19.6,0.943488,4.671635,8.00685,0.055064,-0.843782,-0.170366,17.892666,-30.627777,-32.358429,-70.605127,-27.659724,2.072901,0
27:19.7,-0.811013,4.719386,4.727619,0.289217,-0.464729,-0.941116,17.905464,-31.706749,-30.659454,-65.389474,-32.423101,0.438229,0
27:19.8,-4.108656,5.365293,8.527467,0.814502,-0.983615,-0.744503,17.581497,-32.56086,-30.201355,-60.937219,-35.98468,-2.008165,0
27:19.9,-5.131778,5.558691,13.141173,-0.131472,-0.418639,-0.583556,19.591835,-31.878845,-29.662781,-61.848342,-34.360142,1.796288,0
27:20.0,-0.017214,4.778663,10.279274,-1.000183,1.143799,0.524348,19.430222,-33.05397,-28.343353,-69.660281,-32.923776,5.142237,0
27:20.1,1.328487,3.917054,6.050119,-0.18153,1.532051,0.886886,21.162029,-32.54335,-28.314911,-74.529326,-29.94701,10.432004,0
27:20.2,1.585653,4.477639,5.634583,0.251279,1.129804,1.13227,19.0191,-36.277313,-24.694672,-80.633786,-34.557241,10.54728,0
27:20.3,1.947001,4.405189,8.662636,0.616394,0.033848,0.361529,17.910419,-37.518257,-24.248749,-81.034538,-36.534125,9.892771,0
27:20.4,0.38964,5.485792,11.221864,-0.463555,-0.343168,-0.172596,18.128487,-34.746376,-27.750397,-78.107288,-32.381885,6.948263,0
27:20.5,-0.142055,5.733527,10.366543,-0.798912,-1.330626,-1.036812,17.617744,-31.844002,-31.077271,-71.999231,-29.442285,2.993628,0
27:20.6,-1.070274,4.761898,6.018834,-0.28617,-1.165921,-1.522251,18.435387,-30.1203,-32.570557,-64.262435,-29.929568,-0.09805,0
27:20.7,-2.140549,5.20782,6.870563,1.157266,-1.561571,-0.452745,13.859917,-33.45507,-31.121979,-62.965264,-36.177436,-9.388735,0
27:20.8,-4.737349,6.421796,7.09285,0.789979,-1.22108,-0.474858,15.036697,-33.669556,-29.562561,-58.838145,-39.488311,-8.550939,0
27:20.9,-1.143772,5.122498,12.974719,0.036391,1.184365,-0.175075,15.701782,-32.751442,-31.019012,-61.747098,-35.586005,-5.200726,0
27:21.0,0.993334,3.496279,12.083323,-0.599994,1.336612,0.965381,17.490665,-31.925308,-31.223267,-68.523563,-31.400396,0.662875,0
27:21.1,1.00022,3.57756,4.750821,-0.424688,1.243075,0.873812,17.876175,-34.835541,-26.697388,-77.251352,-33.858152,5.552433,0
27:21.2,1.077759,4.003575,6.481073,0.843799,1.366116,1.964376,13.883541,-39.348534,-22.956512,-88.212577,-38.812664,4.827053,0
27:21.3,1.639241,5.587581,7.722291,0.437182,0.441595,0.561063,13.960823,-40.007088,-22.318665,-89.37954,-39.148156,5.882395,0
27:21.4,1.47608,6.648275,12.367881,-0.479261,0.548312,-0.463164,14.828491,-36.712006,-26.143951,-88.499634,-32.811834,6.214524,0
27:21.5,1.016686,5.39553,8.054301,-0.624702,-1.931892,0.618147,9.47361,-36.953835,-28.134491,-92.253616,-32.472662,-2.908786,0
27:21.6,0.486189,5.439987,4.271368,-0.149693,-1.365594,-0.085475,6.541687,-37.857361,-27.912292,-92.59866,-34.40297,-9.919116,0
27:21.7,-1.940864,7.192244,7.014413,0.61481,-1.16111,0.211632,4.913742,-38.012558,-27.417114,-91.369509,-35.50074,-14.813152,0
27:21.8,-3.956572,7.793992,12.449312,-0.282605,0.130155,-0.74784,7.610138,-37.2444,-27.717346,-88.034824,-34.417683,-9.953378,0
27:21.9,-0.811013,3.969296,11.575129,-0.881988,0.690705,-0.106139,10.17849,-35.407776,-28.958221,-89.039902,-31.174517,-3.678115,0
27:22.0,1.38013,2.557282,7.462731,0.336543,1.52978,1.543958,9.91391,-37.358757,-26.813263,-96.852243,-31.667668,-0.146116,0
27:22.1,1.059796,4.364175,5.419031,-0.00636,1.559221,0.923296,8.848999,-38.824455,-24.515167,-104.336127,-34.067756,3.305066,0
27:22.2,1.505419,4.6164,8.496182,0.751641,0.176136,0.987825,6.687645,-40.399803,-22.378265,-107.416759,-37.844774,1.651277,0
27:22.3,0.270787,5.48684,9.475595,-0.197391,0.227366,-0.892827,10.907906,-38.176025,-24.68158,-101.373114,-33.872788,5.955342,0
27:22.4,1.392404,5.964347,10.296488,-1.003742,-0.888331,-0.101029,6.977715,-36.717415,-28.320862,-103.403167,-30.039877,-1.558794,0
27:22.5,0.002994,3.816164,5.620213,-0.565784,-0.662756,-0.381539,7.726624,-35.329788,-30.59079,-99.072638,-27.975694,-3.12434,0
27:22.6,-2.182611,5.412445,6.346951,0.549243,-0.744344,-0.22446,5.360252,-36.489738,-28.703491,-98.628199,-30.995226,-9.007614,0
27:22.7,-4.391717,6.503526,10.974878,0.020563,-0.761588,-0.399566,5.296501,-35.944992,-29.757385,-97.575879,-30.311224,-8.874492,0
27:22.8,0.199834,4.774471,13.575869,0.027988,1.272508,1.004813,2.704155,-36.409775,-29.248352,-105.103659,-29.5003,-8.873005,0
27:22.9,2.492168,2.822381,8.305928,0.472371,1.23472,1.564632,3.067162,-37.648148,-27.217743,-112.615022,-30.259705,-4.257518,0
27:23.0,1.191373,3.450175,4.029471,-0.127711,1.465836,0.149368,4.832954,-38.354561,-26.724243,-115.993614,-31.463394,2.656081,0
27:23.1,1.200504,3.322341,8.772358,0.31395,0.877469,1.034697,2.907814,-38.172455,-26.207275,-119.556638,-31.679096,1.498622,0
27:23.2,-0.496517,4.870422,11.054961,-0.135866,-0.218077,-0.640223,5.922081,-37.322083,-28.114655,-114.711877,-29.202771,4.193793,0
27:23.3,1.290766,5.218448,11.585608,-1.513979,-0.323617,-0.809541,5.461731,-34.123055,-32.452789,-112.94337,-22.769264,1.631375,0
27:23.4,0.650847,3.646417,6.2995,-0.047371,-0.607003,-0.144639,5.252075,-33.549728,-32.646027,-110.020985,-22.495668,-0.45019,0
27:23.5,-1.287622,4.310287,5.152585,0.799408,-0.444653,-0.38749,4.988808,-35.736542,-29.022369,-107.879646,-27.723969,-3.750352,0
27:23.6,-3.176694,4.532275,10.876682,0.631464,-0.881632,-0.546544,5.074387,-37.303772,-28.042969,-104.414499,-30.571433,-5.036719,0
27:23.7,-3.594475,5.561086,13.736185,-0.09466,1.69787,-0.363966,10.702133,-36.195137,-28.022552,-105.166446,-28.168094,6.874024,0
27:23.8,0.042961,5.189109,8.752449,-0.574844,1.306701,0.738931,10.88459,-36.79303,-27.15271,-111.212343,-28.467997,10.918995,0
27:23.9,0.1925,4.14997,4.925807,-0.414387,0.798692,0.419985,11.250084,-36.361061,-27.593689,-113.711907,-27.257917,12.943194,0
27:24.0,-0.113614,3.706742,7.664212,0.405974,0.349431,0.574334,9.695595,-37.820511,-25.665283,-115.49468,-30.084828,12.38078,0
27:24.1,0.018861,3.891009,9.342223,0.300241,-0.131231,-0.268628,11.640762,-38.28167,-24.641174,-111.498973,-32.062214,14.182551,0
27:24.2,-1.338217,5.261259,10.962453,0.557375,-0.196914,-0.629406,13.958096,-37.220909,-25.050842,-106.05716,-30.548307,14.415551,0
27:24.3,-1.280138,5.264253,9.357042,-0.780477,-1.09727,-0.454131,12.224731,-35.182144,-28.178528,-104.362733,-27.238652,8.732873,0
27:24.4,-0.907563,3.86167,5.80927,-0.559121,-0.973863,-1.018772,12.073875,-34.510414,-29.144257,-100.006946,-27.134493,4.833888,0
27:24.5,-2.635719,6.167175,6.235284,1.423989,-1.110006,0.072955,8.715103,-37.948875,-25.628571,-99.452626,-34.27464,-1.705,0
27:24.6,-4.349206,8.352481,9.142089,0.506074,-0.565523,-0.277937,9.23925,-38.698608,-24.755219,-99.259993,-35.458809,-0.945656,0
27:24.7,-4.253854,4.831503,9.926308,-0.233376,1.002204,0.4267,10.491669,-38.476639,-25.255585,-102.085667,-33.684491,4.111273,0
27:24.8,-0.783171,2.190844,9.680669,0.234359,1.396088,0.685467,11.249031,-37.973984,-26.091858,-106.45305,-31.490376,8.573269,0
27:24.9,0.723146,4.889881,6.813681,-2.13082,1.331492,0.728934,12.170609,-35.40799,-29.246033,-113.831619,-25.085597,13.861351,0
27:25.0,1.58191,5.153633,9.106014,-0.343137,1.110853,1.244602,9.554306,-36.572945,-27.875092,-120.357615,-27.769396,14.307639,0
27:25.1,0.818797,4.45294,10.6514,0.945897,-0.248071,0.198903,8.510178,-38.065544,-25.744598,-119.466726,-30.80375,11.986325,0
27:25.2,0.633034,2.250121,8.273595,-0.082717,-0.60875,-0.877464,9.842125,-37.472382,-26.883942,-113.723963,-29.401058,9.050642,0
27:25.3,-0.582888,3.150798,7.832612,0.762852,-1.836697,-0.128272,9.178688,-36.250397,-28.802643,-109.412774,-28.021648,3.154486,0
27:25.4,-0.160766,6.502478,7.873776,-1.378692,-0.378984,-0.919308,8.84407,-35.450294,-30.159882,-106.172161,-26.467638,-0.032196,0
27:25.5,-3.17864,7.162456,4.973408,0.478569,-0.868192,-0.359703,6.707062,-36.793953,-30.01001,-104.401698,-28.592466,-5.731491,0
27:25.6,-5.667664,4.65966,16.55198,-0.135752,-0.561888,0.598287,7.525063,-33.512741,-33.509003,-105.162334,-22.014475,-3.085786,0
27:25.7,-1.040337,1.786984,13.403727,0.20491,0.80654,0.921499,8.002968,-37.32473,-28.248505,-111.754439,-27.548407,2.02962,0
27:25.8,0.441731,2.348017,8.713979,0.729412,1.796377,0.688788,8.777336,-38.617905,-25.053223,-115.54331,-30.437599,7.442817,0
27:25.9,0.798589,4.522396,6.553971,0.300819,0.996918,1.002479,6.294868,-39.884888,-23.867645,-121.734251,-31.704231,7.19746,0
27:26.0,0.518671,3.776347,6.790779,-0.150819,0.169458,0.724695,3.603828,-39.678658,-23.250458,-126.210647,-31.711111,4.126584,0
27:26.1,-0.421224,3.971391,7.717352,0.385525,-0.67067,0.610652,0.992386,-40.68264,-20.611328,-127.793447,-35.984091,-1.114308,0
27:26.2,0.030836,6.721323,9.923464,0.462649,-0.002618,-0.85842,3.012535,-40.102013,-21.787292,-123.885329,-34.073843,-0.786905,0
27:26.3,-0.201032,4.77537,5.796845,-0.7228,-0.48049,0.272923,2.475578,-38.565765,-23.232208,-124.083521,-32.178386,-1.797709,0
27:26.4,-2.036964,6.024073,5.648654,0.305676,-0.024572,0.622898,-0.40007,-39.275589,-21.352081,-128.601992,-35.66362,-5.428436,0
27:26.5,-1.993255,6.117479,10.109827,0.312002,-0.099674,0.303864,-1.511124,-39.135048,-20.360718,-130.510396,-37.376394,-5.637225,0
27:26.6,-2.964735,5.02999,11.354339,0.424904,1.125178,0.04085,2.6362,-38.159073,-21.786407,-127.621145,-35.860694,3.971317,0
27:26.7,0.022902,5.067412,7.832911,-0.287135,0.908546,0.51746,0.56591,-36.024361,-23.294861,-134.605131,-34.067353,4.799361,0
27:26.8,0.7694,4.969815,6.134543,-0.874722,1.076577,0.983258,-2.662598,-35.072723,-24.191223,-143.570532,-33.662536,3.894162,0
27:26.9,-1.826951,6.193371,7.652986,0.39661,0.138575,1.147782,-5.586739,-34.773361,-22.990601,-148.033659,-35.964414,1.784871,0
27:27.0,-1.622626,6.065836,10.782677,0.01739,-0.542944,-0.016104,-6.458031,-33.954536,-24.186096,-146.66634,-33.847633,0.449139,0
27:27.1,3.120561,3.613486,9.686357,-0.795068,0.04665,0.078439,-8.039406,-32.569038,-24.643524,-147.980103,-31.450569,-1.391653,0
27:27.2,0.512834,4.786896,5.68398,0.674312,0.104792,-0.090304,-7.792702,-33.871132,-24.242889,-147.030537,-33.158586,-0.417619,0
27:27.3,-1.311722,5.315297,5.84729,0.067346,-0.595557,0.127912,-10.362274,-34.980774,-22.080109,-148.637909,-35.879181,-4.690265,0
27:27.4,-3.972888,6.378685,7.591314,0.645113,-0.713622,0.084995,-10.432182,-36.540169,-19.681976,-148.270605,-38.920088,-4.515595,0
27:27.5,-3.315156,6.584957,12.813804,-0.079638,1.418578,-0.181213,-7.063347,-35.466141,-23.857056,-147.77049,-35.922058,5.104173,0
27:27.6,-1.950145,4.380341,7.850425,-0.930603,1.097906,0.139758,-4.679062,-34.151329,-26.729675,-151.561626,-33.789231,11.834141,0
27:27.7,-0.648601,2.955005,4.391867,-0.202917,1.005382,0.954364,-6.164352,-32.836349,-28.263947,-158.457748,-33.733311,12.480641,0
27:27.8,-0.549358,5.051246,8.359666,0.297484,0.454291,1.548586,-10.83728,-31.956146,-27.884583,-168.753349,-36.031873,6.641227,0
27:27.9,0.077988,5.542225,8.255183,-0.16127,-0.689234,0.560282,-11.858864,-31.017265,-29.31015,-170.398064,-34.449578,6.181836,0
27:28.0,2.161655,7.079827,11.840078,-0.359845,0.133299,-0.133908,-13.58461,-29.360771,-30.686188,-173.632895,-31.332516,2.204685,0
27:28.1,0.519869,6.049819,8.575068,-0.617708,-0.866473,0.200579,-15.061523,-29.651253,-31.351135,-173.820224,-30.369407,0.264565,0
27:28.2,-0.020208,4.79438,4.803062,-0.156986,-0.069936,-0.916576,-13.597778,-30.930611,-30.40213,-170.45519,-30.951795,1.317462,0
27:28.3,-2.343377,6.24202,6.439758,1.142325,-0.543231,-0.200331,-14.643074,-33.885086,-26.538116,-169.784487,-35.963316,-1.47572,0
27:28.4,-2.680326,6.296057,9.361982,0.245053,-0.579827,-0.488646,-12.556137,-35.414108,-25.223297,-166.016282,-37.52763,0.859409,0
27:28.5,-0.540526,4.374653,10.926528,0.313663,1.530792,-0.062338,-10.351395,-34.607437,-28.048706,-166.292902,-35.195495,6.057338,0
27:28.6,0.878373,4.027674,7.892487,-0.530671,0.823009,0.319135,-10.470894,-32.666145,-30.499207,-170.006067,-32.109072,7.147777,0
27:28.7,0.525856,4.854106,4.617448,-0.431807,0.197367,0.443179,-11.98233,-32.252174,-29.989532,-176.165035,-34.001624,5.896371,0
27:28.8,1.778751,5.055587,8.801248,0.642841,-0.091105,1.023775,-14.941078,-32.801376,-28.898956,179.52301,-36.445305,1.66415,0
27:28.9,-0.364642,5.414241,10.134525,-0.280724,-0.377533,-0.627884,-13.221985,-33.097382,-28.46759,-174.691156,-34.545677,3.057744,0
27:29.0,2.378404,6.490653,10.768158,-1.281348,-0.574935,-1.03011,-14.21962,-30.955566,-31.35553,-173.24176,-28.564059,-0.021768,0
27:29.1,0.959505,4.07782,6.505621,0.354288,-0.542601,0.176933,-14.208374,-31.210075,-30.429993,-170.681603,-28.532659,-1.174087,0
27:29.2,-1.465902,4.408483,4.312682,0.560788,-0.130986,-0.856743,-13.529068,-34.947365,-26.883881,-167.074557,-33.723195,-2.232042,0
27:29.3,-3.920348,6.173163,9.735754,0.701223,-0.906294,-0.229118,-13.420006,-36.167542,-25.715942,-164.399906,-34.518664,-3.650708,0
27:29.4,-3.681594,6.485863,11.527977,-1.367684,0.375081,-0.874423,-10.691032,-34.348701,-28.911743,-164.660333,-31.296011,1.64232,0
27:29.5,0.652942,4.875661,10.604248,-0.153242,0.955921,0.964878,-12.149025,-32.985558,-30.63913,-171.442918,-30.83409,3.018575,0
27:29.6,0.973426,3.318449,4.363726,-0.068216,1.258503,0.445478,-10.519424,-31.610588,-33.278351,-175.329344,-29.294197,6.797423,0
27:29.7,0.561333,4.970713,6.874754,0.864933,0.679197,1.606621,-14.04287,-32.492996,-30.25177,175.549271,-35.025063,3.345322,0
27:29.8,0.762065,3.75569,9.533824,-0.041486,-0.550288,0.233251,-13.554787,-32.428421,-30.589203,177.822019,-33.680021,3.598344,0
27:29.9,2.117197,5.713618,11.131901,-0.742532,0.079298,-1.055626,-12.580025,-29.163422,-34.629517,-179.377497,-26.133383,3.948105,0
27:30.0,2.31314,5.699398,9.755513,-0.546051,-1.043199,0.721009,-16.284119,-28.225525,-33.720734,179.115421,-24.821893,-2.039411,0
27:30.1,-0.05748,3.381917,4.023184,-0.279546,-0.264945,-1.124061,-14.725555,-31.104637,-32.002869,-173.966162,-27.342097,-1.502003,0
27:30.2,-2.611619,4.556824,7.988737,1.342458,-0.975176,-0.85581,-14.397186,-33.933327,-28.497589,-168.979558,-30.872989,-4.544887,0
27:30.3,-3.51065,6.045179,12.068653,-0.771018,-0.778465,-0.668198,-14.1698,-33.175117,-29.336334,-167.192118,-28.427642,-3.99861,0
27:30.4,0.092807,3.604055,12.875475,0.147692,0.824612,0.903598,-14.000633,-31.303123,-31.616302,-171.412635,-26.315152,-1.490881,0
27:30.5,2.221231,2.987787,6.599776,-0.161642,1.159393,1.017126,-13.19355,-29.55497,-33.902252,-177.693408,-25.771747,2.318065,0
27:30.6,0.320933,3.979475,4.18829,-0.065783,0.763492,1.074286,-13.922691,-29.162315,-33.797607,174.667801,-28.794698,2.767363,0
27:30.7,0.601749,3.797753,9.431138,0.160757,0.011201,0.727286,-16.386902,-27.929131,-34.25061,171.821515,-27.816658,-0.045596,0
27:30.8,1.788481,4.753515,12.135863,-0.583253,-0.306713,-0.2072,-15.938591,-26.646049,-35.520142,174.536662,-24.548631,-0.143905,0
27:30.9,2.857109,5.253026,11.187436,-0.977063,-0.386109,-0.653841,-16.974007,-25.317299,-36.054291,176.405742,-21.366573,-1.981927,0
27:31.0,0.859513,3.228786,6.788084,0.32553,-0.512979,-0.379225,-16.080246,-26.539955,-35.181519,-178.696845,-21.379195,-2.391023,0
27:31.1,-0.772843,3.684887,5.684878,0.368003,-0.262248,-0.823915,-16.401871,-30.284447,-32.206238,-175.090414,-25.555554,-4.496669,0
27:31.2,-3.977978,3.161276,10.799143,0.502425,-0.752764,-0.495705,-15.151695,-31.711906,-30.666138,-170.157678,-26.369653,-4.789691,0
27:31.3,-2.140698,4.648883,12.568314,-0.774567,1.299816,-0.603567,-10.795906,-28.737373,-35.567291,-171.976228,-22.43842,3.924309,0
27:31.4,0.761317,3.701503,10.955568,-0.830977,0.563388,1.461126,-12.206505,-25.810677,-37.563873,178.965377,-21.137403,5.120371,0
27:31.5,0.709225,2.446063,4.359983,0.039554,0.348086,0.546912,-12.490707,-25.792007,-37.051147,174.592425,-22.952477,5.78986,0
27:31.6,-0.534688,4.585864,6.904243,0.958977,0.987182,1.080637,-13.108559,-26.022621,-37.047241,168.849338,-26.030415,6.438657,0
27:31.7,0.54801,3.311115,12.072844,-0.523701,-0.176803,0.09895,-12.755905,-25.241455,-37.625702,172.022517,-23.548099,6.867769,0
27:31.8,0.411794,4.057612,11.301947,0.187121,-0.010055,-0.854659,-11.174164,-25.62426,-37.177643,176.773312,-21.966741,7.529015,0
27:31.9,0.722547,4.111799,9.480535,-0.349818,-0.84083,0.005127,-13.573906,-26.009087,-36.657013,177.331897,-22.332728,3.147776,0
27:32.0,-0.446372,3.46245,4.392316,0.009147,-0.508818,-0.949897,-12.842781,-28.799179,-34.361267,-177.719627,-25.348107,2.964491,0
27:32.1,-3.549718,5.122498,8.210127,1.174504,-0.554094,-0.43923,-12.608841,-30.983871,-32.362366,-173.33742,-27.693335,2.145582,0
27:32.2,-4.896468,5.965994,10.428214,-0.845765,-0.076321,-1.172689,-10.06234,-30.62677,-33.809418,-170.002311,-25.224249,5.634472,0
27:32.3,-0.422272,3.413053,11.544443,0.164786,1.063993,0.827069,-10.311905,-28.622223,-35.383972,-174.233567,-23.341027,6.506516,0
27:32.4,0.863854,1.84656,7.513775,-0.223004,0.662143,0.474616,-9.950035,-27.213821,-36.175476,-176.420319,-22.044218,7.611767,0
27:32.5,0.005239,4.07318,4.939877,0.436695,0.416922,0.764494,-11.590202,-28.567871,-34.93689,176.943271,-27.300831,7.95093,0
27:32.6,0.39443,3.408712,10.259366,0.369871,-0.074057,1.010069,-14.074669,-28.23735,-34.941742,174.498696,-27.780679,5.836744,0
27:32.7,0.101339,5.386399,11.600876,-0.320682,0.056835,-0.600477,-13.324135,-28.01461,-35.14621,176.860547,-26.192905,6.251206,0
27:32.8,2.366579,5.166357,10.436148,-0.910284,-0.750975,-0.181185,-16.287003,-26.793205,-34.293976,176.418076,-23.656496,1.219374,0
27:32.9,0.068258,3.215912,6.00147,0.453709,-0.352522,-0.577628,-14.629364,-28.842445,-33.828552,-177.184922,-23.52334,1.224718,0
27:33.0,-2.098486,4.038452,6.012846,0.608239,-0.515031,-0.835708,-15.577034,-32.768341,-29.495819,-173.758149,-28.486557,-2.531317,0
27:33.1,-1.869313,4.731361,9.823023,0.384509,-0.936657,-0.371318,-15.43808,-33.352737,-28.643921,-170.925657,-28.472618,-4.018498,0
27:33.2,-0.520617,5.2174,12.063414,0.1729,0.885809,0.088685,-14.072334,-32.219017,-31.083374,-173.39432,-27.264372,-0.231125,0
27:33.3,0.219294,4.548142,9.448352,-0.38,0.721133,0.685555,-13.706863,-31.188103,-31.918915,-177.269765,-27.555225,1.741063,0
27:33.4,-0.230371,3.497477,4.268524,-0.194342,0.464276,0.023046,-12.533302,-31.788284,-32.515564,-178.609723,-29.17818,4.098589,0
27:33.5,0.492626,4.65023,8.596474,0.964612,0.233469,0.748327,-15.621193,-32.731346,-29.29483,177.213507,-32.893708,0.625864,0
27:33.6,1.366059,5.065317,10.479408,-0.403791,-0.524792,-0.076273,-15.369522,-32.532738,-30.168488,179.989423,-30.947743,-0.057914,0
27:33.7,3.160228,6.143524,11.37784,0.182868,-0.479567,-0.241244,-16.735619,-32.132835,-30.206268,-179.165311,-29.370993,-2.982295,0
27:33.8,2.111659,4.660109,7.547904,-0.031286,-0.499051,0.019379,-17.033081,-32.74527,-29.2565,-177.203025,-30.801724,-4.191602,0
27:33.9,-0.097896,4.086502,3.436554,0.092265,-0.039473,-0.946557,-14.503014,-35.608551,-26.629242,-172.111641,-34.757128,-2.727804,0
27:34.0,-2.477648,5.569019,5.670358,0.918903,-0.718882,-0.464844,-14.851295,-37.833542,-23.227997,-169.071713,-37.70484,-5.688639,0
27:34.1,-3.168461,8.16552,10.125095,-0.169184,-1.003637,-0.417557,-15.15889,-37.522301,-23.679382,-167.60823,-36.81314,-7.293982,0
27:34.2,0.578248,5.4819,12.578942,-0.444607,1.20901,0.606043,-14.642067,-34.963394,-27.602264,-169.69541,-32.287224,-3.122893,0
27:34.3,1.517993,3.485801,6.946604,-0.135688,1.683576,0.467569,-12.538483,-33.22657,-30.382843,-173.334537,-31.070822,2.37666,0
27:34.4,1.459615,4.714297,4.459077,0.219453,0.743417,0.995363,-15.28965,-33.618683,-29.474945,177.558953,-34.756396,1.435338,0
27:34.5,2.568209,4.86159,8.779842,0.664475,-0.183558,1.499786,-19.237015,-32.992996,-26.827637,171.760939,-36.783565,-3.691108,0
27:34.6,0.640219,5.212461,11.466306,-0.334168,-0.101938,-0.653836,-15.817123,-32.658379,-29.384247,178.79283,-32.61826,0.081229,0
27:34.7,2.344574,7.106023,10.81995,-2.16154,-0.179979,-0.712981,-17.73877,-29.671486,-32.287659,177.257391,-27.592402,-3.646196,0
27:34.8,0.738265,4.016298,5.921686,0.125065,-0.431487,-0.414827,-16.312943,-30.185463,-32.074463,-177.227176,-26.170416,-2.527055,0
27:34.9,-1.825005,4.599934,5.26545,1.127652,-0.469757,-0.639865,-16.326736,-34.119446,-27.519653,-174.224575,-32.434691,-5.227677,0
27:35.0,-1.459315,6.403833,10.205029,0.193816,-0.674423,-0.28723,-17.485023,-34.591667,-26.556244,-173.590059,-33.091509,-7.829852,0
27:35.1,0.116608,5.869444,12.510983,0.675331,1.139776,0.613859,-17.549248,-34.28701,-27.257782,-177.552369,-33.475883,-5.923962,0
27:35.2,1.714235,3.814967,6.960975,0.061642,1.085328,0.140029,-16.091797,-33.592873,-28.722046,-179.772862,-33.316631,-0.693137,0
27:35.3,0.001198,4.168831,3.259173,-0.301936,1.031752,0.124744,-14.683662,-33.031029,-30.37738,176.176119,-34.747715,3.091637,0
27:35.4,0.328716,5.122348,9.183852,0.524865,0.447208,0.965799,-16.346977,-32.840622,-29.523163,172.439222,-35.785346,0.68758,0
27:35.5,0.247286,5.980064,10.073752,-0.572595,-0.297727,-0.603322,-14.862633,-32.158646,-31.22995,177.444383,-32.352967,2.341213,0
27:35.6,3.158582,6.730604,12.312496,-0.845063,-0.279953,-0.229878,-17.120064,-29.789513,-32.194489,176.685499,-28.423336,-2.011983,0
27:35.7,1.074017,3.838019,5.542674,0.154599,-0.779318,-0.225331,-16.140007,-32.495956,-30.703644,-179.150286,-30.798875,-2.5715,0
27:35.8,-1.080603,4.326303,3.699257,0.888018,-0.465517,-0.923387,-16.688278,-36.419815,-26.237213,-175.738215,-36.910269,-4.808322,0
27:35.9,-2.752776,6.451284,9.199569,0.843492,-1.116538,-0.132706,-17.843231,-37.631569,-23.177521,-174.397187,-39.164681,-9.206068,0
27:36.0,-2.556085,8.271948,12.947326,-0.632272,0.20631,-0.343618,-16.220062,-36.759056,-25.515076,-174.962568,-36.80608,-4.472735,0
27:36.1,1.253194,6.185737,10.039473,-0.601458,0.566556,0.62013,-16.348167,-35.030479,-28.517242,-179.421564,-35.58782,-1.546409,0
27:36.2,0.833467,3.460803,3.819457,0.201447,1.512275,0.372527,-13.556099,-34.534187,-29.991272,178.186882,-35.692187,4.194347,0
27:36.3,0.290396,5.180727,5.22219,0.814237,0.993124,0.891962,-15.778496,-34.855888,-28.198914,171.469721,-40.361888,2.993524,0
27:36.4,1.660347,5.158124,10.144255,0.133202,-0.164467,0.412011,-16.144875,-34.817673,-29.029785,173.181613,-38.716042,2.512985,0
27:36.5,1.335223,7.888147,10.554552,-0.668692,0.133081,-0.999522,-14.581421,-33.527061,-30.859619,176.34002,-34.364691,3.085077,0
27:36.6,1.627565,6.518794,7.980205,-0.525564,-0.533487,0.188592,-16.856674,-33.684601,-29.315887,175.81164,-35.300615,-1.448226,0
27:36.7,-0.462838,3.119962,3.962111,0.332854,-0.550668,-0.99704,-14.087067,-35.7127,-28.016693,-175.873658,-35.812151,1.096343,0
27:36.8,-2.252366,5.581743,5.783373,0.595505,-0.695766,-0.710971,-14.243668,-37.524315,-24.598755,-172.522938,-38.506692,-2.055981,0
27:36.9,-2.279011,6.772966,9.801468,-0.336253,-0.76419,-0.461833,-13.366783,-36.828697,-26.467987,-169.130925,-35.114261,-1.378212,0
27:37.0,-0.604742,6.231541,13.492492,0.144319,1.439706,0.771752,-13.570885,-35.302505,-28.827606,-173.805351,-33.566464,0.927774,0
27:37.1,0.363594,4.142486,7.763905,-0.538682,0.73731,0.26996,-11.531891,-34.038612,-30.660065,-176.115179,-32.874677,5.465803,0
27:37.2,0.141606,3.920198,3.631598,-0.228128,0.865134,0.403807,-12.189629,-33.78051,-30.794464,178.205332,-35.067373,6.623835,0
27:37.3,0.604293,5.37128,7.405101,0.709894,0.131318,1.355782,-15.467651,-33.937653,-29.479309,171.561993,-37.689685,2.747103,0
27:37.4,0.712668,5.769153,8.863369,-0.223296,-0.340347,-0.024327,-14.306282,-33.154083,-31.023438,174.596644,-35.185919,4.189652,0
27:37.5,3.42398,6.518495,12.332405,-0.491936,0.071396,-0.670877,-14.805183,-30.696342,-33.307343,176.164965,-29.155623,2.473349,0
27:37.6,1.060545,4.996909,7.236102,-0.224496,-0.520556,0.193034,-14.719131,-32.108093,-31.694122,178.578047,-31.010214,1.232022,0
27:37.7,-0.872985,3.84685,4.057163,-0.115728,-0.250983,-1.246847,-12.511055,-34.508392,-29.664948,-174.207495,-33.089612,2.761086,0
27:37.8,-2.867886,5.9389,8.23258,0.91272,-0.919807,-0.460911,-13.473671,-37.00576,-26.328491,-171.057631,-36.298764,-0.743738,0
27:37.9,-4.102668,8.970695,9.984088,-0.172894,-0.672825,-0.419606,-12.776802,-36.841461,-27.351593,-170.622032,-35.750534,1.263415,0
27:38.0,1.262325,5.696255,11.424243,0.105481,1.082713,0.753001,-13.683281,-35.081085,-29.063843,-174.712589,-33.570775,1.663091,0
27:38.1,0.861758,3.569178,5.571414,-0.077147,1.131226,0.315773,-11.454842,-34.131882,-30.880005,-176.158946,-33.138183,5.8156,0
27:38.2,-0.612377,4.133355,4.061354,0.322605,0.806322,0.236847,-10.814445,-34.719566,-29.677673,-178.853846,-36.36775,7.90831,0
27:38.3,0.052541,5.087471,9.646989,0.061494,-0.076568,0.672995,-13.05098,-34.792641,-29.913361,179.22529,-36.020951,5.605995,0
27:38.4,0.404459,6.195916,10.304272,-0.503385,-0.06891,-0.536698,-10.617935,-34.231987,-31.666595,-177.338568,-32.983947,7.461491,0
27:38.5,2.124831,7.022796,10.191257,-0.912265,-0.010454,-0.483097,-12.633705,-31.656479,-33.460327,-178.27496,-28.714532,4.227891,0
27:38.6,-0.498763,3.797753,6.121969,0.819475,-0.634601,-0.113765,-10.927361,-33.775597,-31.335632,-172.461788,-30.79054,4.332021,0
27:38.7,-1.791325,4.032315,4.839436,0.319475,-0.249806,-1.334865,-9.833702,-37.137177,-27.22818,-166.018002,-35.206852,4.230309,0
27:38.8,-3.323838,6.569389,8.927286,0.968467,-0.978112,-0.33229,-10.046181,-38.985672,-23.620117,-163.413974,-38.723285,2.416575,0
27:38.9,-3.487298,8.913664,9.972113,-0.073944,0.330882,-0.096257,-9.511101,-39.121063,-24.712738,-165.92859,-39.269166,5.355163,0
27:39.0,-0.441282,6.57373,9.927057,-0.710468,0.64596,0.659804,-9.971565,-37.095673,-26.983887,-170.457949,-36.773716,6.046689,0
27:39.1,-0.275128,3.526816,4.547843,-0.081747,0.762621,-0.035597,-8.324913,-36.769234,-28.007996,-169.967314,-36.269736,9.820737,0
27:39.2,0.231718,4.777316,5.178631,0.620449,0.672063,0.499464,-9.752594,-37.36039,-26.104523,-173.759192,-40.221248,9.27037,0
27:39.3,0.179028,6.052813,9.139395,0.256086,0.04229,0.371366,-10.111382,-37.566513,-25.565979,-173.268966,-40.607311,8.85797,0
27:39.4,-0.09625,8.170609,9.606723,-0.370146,-0.337098,-0.488058,-9.936874,-36.541023,-27.755402,-171.710936,-36.876173,7.65312,0
27:39.5,1.060096,6.807095,8.624166,-0.930106,-0.986727,0.471888,-13.146713,-35.293312,-27.641846,-173.30542,-35.323705,1.428198,0
27:39.6,-0.418081,3.742966,4.359684,0.081202,-0.260391,-0.905915,-10.985031,-36.513275,-26.302216,-166.866523,-35.361083,2.493702,0
27:39.7,-2.353556,5.571564,5.52995,0.657183,-0.6815,-0.5272,-11.410484,-38.694427,-23.680847,-164.506018,-38.359641,-0.67691,0
27:39.8,-2.76011,7.286697,10.202184,-0.083004,-0.757734,-0.249833,-11.800217,-38.043854,-24.365875,-162.80672,-36.445938,-1.143734,0
27:39.9,0.122745,6.949598,12.256363,0.042424,1.138735,0.627043,-12.656281,-36.590195,-26.067047,-168.110273,-35.413206,0.022221,0
27:40.0,0.619262,4.823869,7.55928,0.180266,0.778507,0.764953,-11.956467,-36.791435,-25.803833,-171.287491,-36.957844,3.08203,0
27:40.1,-0.563279,4.33738,2.951562,0.191382,0.81462,0.1688,-11.70015,-37.376518,-24.752106,-174.585785,-40.474617,5.714176,0
27:40.2,0.02889,5.580695,7.598349,0.455847,0.306218,0.87184,-14.268234,-36.578026,-24.937622,-179.176965,-41.196467,3.000893,0
27:40.3,0.141606,6.431376,8.229886,-0.178307,-0.245428,-0.098216,-13.518829,-36.754829,-25.066437,-176.936418,-40.347257,3.833799,0
27:40.4,3.109633,7.19868,11.335927,-0.487484,-0.157621,-0.300047,-14.881355,-34.256844,-26.937103,-177.722966,-35.444741,0.508837,0
27:40.5,1.272204,5.632936,6.560258,-0.22875,-0.365349,0.032693,-14.602341,-35.269806,-26.269684,-176.001286,-36.577107,0.345794,0
27:40.6,-0.320484,4.481381,3.541785,-0.022115,-0.231125,-0.795456,-12.634476,-36.777237,-24.537903,-170.743492,-38.302036,1.536915,0
27:40.7,-2.952011,7.432494,7.326814,0.66882,-0.907042,-0.398722,-13.171783,-38.064102,-21.101501,-168.691564,-40.47471,-2.53297,0
27:40.8,-4.135001,10.012679,11.534564,-0.465842,-0.621078,-0.226782,-13.060318,-36.618752,-23.729004,-168.663122,-37.008786,-0.912978,0
27:40.9,-0.011526,5.827681,9.348809,-0.055754,0.458907,0.346933,-13.111374,-36.006966,-24.046417,-171.122978,-37.381063,1.175029,0
27:41.0,1.536106,3.006947,5.363796,0.777776,1.043774,0.912371,-13.296539,-35.982307,-24.031586,-174.648491,-38.919992,2.856576,0
27:41.1,0.358804,4.521048,3.994294,0.318878,1.142388,0.479754,-13.873253,-35.621536,-22.839569,-179.723684,-42.599005,4.346244,0
27:41.2,0.775088,5.609585,8.023016,0.140001,0.07985,0.722986,-14.492195,-35.03347,-22.327423,178.242871,-42.418999,3.245804,0
27:41.3,0.199236,8.073162,9.72333,-0.550351,0.021658,-0.485768,-13.516808,-33.400711,-24.447906,-179.029995,-38.203042,4.703121,0
27:41.4,3.275788,7.628287,9.706415,-1.240042,-0.661373,0.125756,-17.678383,-31.131104,-24.370911,177.757106,-34.283481,-2.62206,0
27:41.5,0.782573,4.163292,4.856201,0.696709,-0.675626,-0.219887,-16.48243,-32.609489,-22.944061,-177.054824,-35.651942,-3.11383,0
27:41.6,-1.66843,4.925657,4.114644,0.303373,-0.550874,-1.147765,-15.16394,-34.421501,-18.793365,-171.468052,-38.795588,-4.423777,0
27:41.7,-1.992207,6.581663,10.468181,0.063979,-0.98291,-0.377269,-14.731415,-34.175186,-19.094727,-167.003707,-36.245584,-5.886188,0
27:41.8,-1.881438,7.129225,12.573703,-0.538704,0.966435,-0.317149,-13.20491,-32.713058,-20.771484,-167.974404,-34.467226,-1.124934,0
27:41.9,0.352218,5.332511,9.563313,-0.45749,0.696227,0.394621,-12.773933,-31.173004,-21.798462,-171.076133,-33.927012,2.359512,0
27:42.0,0.453108,4.074976,3.892955,-0.300969,0.49036,0.066052,-12.400482,-30.271477,-21.830017,-173.235278,-34.406829,5.286994,0
27:42.1,0.685125,5.13567,6.355334,1.002709,0.534339,0.808126,-14.276627,-30.335663,-19.951813,-177.479292,-38.479952,4.274603,0
27:42.2,1.511407,5.024601,9.366472,-0.037261,-0.332437,-0.012476,-12.887352,-30.660179,-20.135895,-173.446547,-36.301318,5.492422,0
27:42.3,2.169738,6.845864,11.505075,-0.666599,0.130945,-1.004449,-12.603882,-29.752617,-22.694275,-170.812921,-30.439841,3.805143,0
27:42.4,0.706381,5.317243,7.270082,-0.407122,-1.0761,0.243644,-14.003746,-30.079498,-20.967529,-169.785109,-31.718681,-1.250491,0
27:42.5,-1.198109,3.622168,3.984863,0.034747,-0.700881,-1.121915,-12.303673,-32.479515,-19.148651,-163.409275,-33.68745,-2.116016,0
27:42.6,-3.50586,6.326294,8.83373,0.983101,-1.252811,-0.238196,-13.088089,-34.384262,-16.439087,-162.070015,-36.623173,-7.510655,0
27:42.7,-3.948938,8.519384,11.832444,-0.859761,-0.283798,-0.418979,-12.49482,-33.979027,-19.199066,-162.53189,-34.430498,-4.323729,0
27:42.8,1.895359,6.095025,11.873908,-0.143231,1.342315,1.148242,-14.708557,-33.159019,-22.059784,-170.734252,-33.99035,-2.969031,0
27:42.9,2.244433,2.903662,4.833598,0.563075,1.418363,0.799304,-13.680237,-33.346962,-22.714172,-174.740185,-35.970428,1.854577,0
27:43.0,1.097368,5.015919,3.904481,1.022806,1.068494,0.927062,-15.971222,-34.276344,-21.052948,175.841752,-42.44213,1.455925,0
27:43.1,1.986519,5.481751,9.143736,0.067771,0.272247,1.16661,-18.146454,-33.578987,-22.121246,172.990871,-41.196305,-1.661989,0
27:43.2,1.175206,7.781718,10.357262,-0.387942,-0.053451,-1.07348,-14.769684,-33.684708,-24.454407,179.755938,-37.328085,2.326615,0
27:43.3,2.543062,7.594158,8.86262,-1.055716,-0.659368,-0.083654,-17.171219,-32.999886,-24.512817,178.832058,-35.835456,-2.525136,0
27:43.4,0.662373,3.716322,3.767815,0.176607,-0.795053,-0.78309,-14.376686,-35.282455,-23.859009,-172.761163,-36.322847,-0.64811,0
27:43.5,-1.917662,5.398524,4.582421,0.833113,-0.772344,-1.153734,-12.518921,-38.380905,-20.421173,-165.558741,-40.061754,-2.240855,0
27:43.6,-3.933071,7.718549,11.274105,-0.346226,-1.035222,-0.861162,-10.853088,-38.097382,-22.523895,-159.05509,-36.325694,-2.243954,0
27:43.7,0.316592,5.733377,13.142969,-0.611219,0.84098,0.123611,-10.669945,-35.865242,-25.960449,-160.794466,-31.747107,0.197537,0
27:43.8,2.145938,4.253704,6.501281,0.178622,0.983329,0.846335,-10.9161,-35.867554,-25.869354,-166.074852,-33.939852,2.170508,0
27:43.9,1.102457,4.948709,3.281626,0.431878,0.793726,0.712214,-12.470749,-36.542694,-23.936371,-173.034774,-39.065627,1.933969,0
27:44.0,1.110541,4.865782,7.484137,0.879311,0.322678,0.989365,-14.525642,-36.616768,-22.721619,-175.784326,-40.855517,0.233233,0
27:44.1,1.393153,6.962022,8.709189,-0.316455,-0.532246,-0.72791,-12.565308,-37.286995,-23.478088,-169.65922,-38.783185,1.360732,0
27:44.2,4.167484,7.420519,11.368559,-0.64223,-0.360904,-0.701419,-12.646385,-35.343742,-25.443359,-166.761872,-33.626044,-1.92644,0
27:44.3,1.390908,4.691993,5.675747,-0.12471,-0.894258,-0.173098,-12.157135,-36.259933,-24.535278,-162.244591,-33.785024,-3.898958,0
27:44.4,-1.528322,4.805158,3.42862,0.435247,-0.765764,-0.972529,-11.64492,-39.384529,-19.785126,-156.948206,-39.283859,-7.842084,0
27:44.5,-2.071692,7.416477,10.004595,0.886231,-1.689724,-0.409469,-12.723923,-39.919312,-18.146057,-153.644273,-39.889523,-12.91102,0
27:44.6,-1.652713,7.164402,12.178225,-0.796808,0.684056,-0.749246,-9.938438,-39.288971,-21.069153,-151.140214,-38.145037,-6.436654,0
27:44.7,1.100062,5.611381,9.227411,-0.694045,0.708315,0.243697,-10.465752,-38.401016,-22.513672,-155.797468,-36.976471,-3.091427,0
27:44.8,1.314866,4.772525,4.476292,0.144281,0.151903,0.900139,-11.665451,-38.172501,-23.25769,-161.903294,-37.652211,-2.360594,0
27:44.9,0.674946,5.099146,5.399871,1.380883,1.23727,1.267393,-13.592361,-39.400589,-20.265015,-168.886228,-43.765609,-2.037908,0
27:45.0,0.899779,5.62156,8.278684,0.011477,0.362671,-0.071781,-11.896332,-39.066353,-22.431122,-166.474902,-41.256295,1.15579,0
27:45.1,2.397415,7.952513,11.309133,-0.868383,-0.190561,-0.029444,-13.704285,-36.561729,-25.11734,-168.81052,-36.558763,-2.465346,0
27:45.2,1.368754,6.353089,7.568411,-0.718067,-0.735524,0.473421,-16.123856,-35.300575,-26.172546,-170.514073,-34.798828,-5.91929,0
27:45.3,-0.542322,4.363726,3.982768,-0.009719,-0.286414,-0.375333,-14.379143,-36.764069,-25.866425,-167.112642,-35.190784,-5.60613,0
27:45.4,-1.381328,6.575826,6.6601,0.5347,-0.460328,-0.387805,-13.790733,-38.475174,-23.813934,-164.892379,-38.236683,-5.552764,0
27:45.5,-1.323847,7.420519,8.797356,0.061054,0.320679,-0.523334,-11.442497,-39.289574,-23.994476,-162.548806,-37.887543,-0.902508,0
27:45.6,0.09146,6.299201,10.552007,0.296264,1.136096,0.885131,-13.359161,-38.093102,-24.869568,-168.59197,-37.4754,-2.027198,0
27:45.7,0.545915,4.493057,7.782616,-0.048379,0.437561,0.729874,-14.956833,-37.256165,-26.784637,-172.361475,-37.044141,-2.789953,0
27:45.8,-0.970582,5.046755,3.613186,-0.251271,1.051192,-0.173173,-12.908112,-37.707359,-26.826843,-173.709246,-38.253651,1.714856,0
27:45.9,0.551753,6.168972,8.331674,0.357562,0.27076,0.783046,-15.497902,-37.895103,-26.85495,-178.138482,-39.47385,-0.669217,0
27:46.0,1.127156,6.110743,9.297616,-0.379277,-0.263441,-0.416265,-13.811829,-37.635941,-28.923126,-174.702547,-36.711184,1.425449,0
27:46.1,3.312911,6.746171,10.41579,-0.278387,-0.258908,-0.109584,-16.06723,-36.570274,-29.822052,-175.42145,-34.489496,-2.055564,0
27:46.2,0.932112,5.160668,6.366112,0.195769,-0.456762,0.011141,-15.687889,-37.844666,-28.393555,-173.08487,-35.778348,-3.193138,0
27:46.3,-0.927471,4.546346,3.927832,-0.300839,-0.373648,-0.856407,-14.41301,-39.179741,-26.260651,-168.394401,-36.875912,-3.938388,0
27:46.4,-2.756368,6.663693,8.565787,0.500827,-1.107322,-0.299201,-15.612129,-40.555878,-23.66156,-166.069492,-38.248087,-7.468278,0
27:46.5,-3.788172,8.431966,11.764785,-0.55602,-0.322685,-0.589319,-13.740067,-40.37133,-25.526855,-163.694764,-36.996076,-3.655158,0
27:46.6,2.074536,6.218069,10.379865,-0.413097,0.540147,0.166115,-14.940323,-39.302956,-26.7565,-165.768639,-35.155102,-4.872641,0
27:46.7,1.800157,5.22219,4.77507,1.027576,-0.227015,1.147033,-17.029327,-38.345543,-26.433411,-172.290927,-36.963705,-5.629791,0
27:46.8,0.422571,5.66003,4.11659,0.571732,1.402013,0.804819,-16.793854,-39.144173,-25.518005,-177.889113,-41.636575,-2.240905,0
27:46.9,2.440974,4.415219,8.745114,0.745672,0.498872,0.346409,-15.437202,-39.825676,-24.319183,-175.643959,-42.577821,0.102372,0
27:47.0,1.169817,7.834109,7.741452,-0.330727,0.105694,-0.773442,-13.704178,-39.985207,-24.520294,-173.086769,-42.314997,1.621764,0
27:47.1,1.911525,7.758366,8.10759,-0.520306,-0.635121,0.144074,-16.197365,-38.433784,-25.539825,-174.239413,-38.968031,-2.793488,0
27:47.2,0.273631,4.846023,5.404811,-0.203695,-0.619475,-0.352784,-15.214699,-38.430511,-25.023041,-170.197,-37.577215,-3.709003,0
27:47.3,-1.498983,7.138505,5.331164,0.627545,-0.148058,-0.420429,-14.643654,-40.717964,-21.181519,-167.922566,-42.424404,-4.16187,0
27:47.4,-1.315614,8.873248,8.624166,0.508255,-0.039371,-0.426083,-13.194046,-41.469307,-20.188141,-165.251892,-44.008481,-1.877468,0
27:47.5,-0.795296,6.875353,8.94944,0.572746,0.765389,0.147735,-12.511559,-41.959465,-18.690094,-166.784644,-47.067305,0.810275,0
27:47.6,-0.070054,5.809719,6.193221,-0.009316,0.68729,0.110594,-12.584686,-41.569405,-18.816956,-168.914744,-47.910115,2.632085,0
27:47.7,-0.609233,6.497089,3.915408,-0.232432,0.519189,0.252713,-12.905243,-40.65522,-19.642639,-172.071794,-47.603521,4.334967,0
27:47.8,1.023422,7.25152,6.328689,0.59116,0.270533,0.642691,-14.530251,-41.269035,-17.53241,-176.100547,-51.377654,2.008337,0
27:47.9,0.944985,8.200846,6.545289,0.589411,-0.425278,-0.096151,-13.962296,-42.102463,-14.572113,-173.373953,-53.879561,2.09252,0
27:48.0,2.254462,8.414452,7.784412,-0.518587,-0.618934,-0.534641,-14.319046,-41.270035,-17.571136,-171.409469,-48.370341,0.095039,0
27:48.1,1.548081,5.687722,6.017487,-0.334296,-0.544746,0.483706,-15.268936,-40.471207,-18.019958,-172.192565,-46.63466,-3.625036,0
27:48.2,0.457748,5.057832,2.778672,-0.632812,-0.188709,-0.40815,-14.625122,-41.059204,-17.152618,-170.106314,-47.505364,-3.679687,0
27:48.3,-0.966839,7.442523,6.758296,0.559396,-0.770102,-0.156152,-15.064842,-41.068779,-16.423645,-168.286529,-47.360735,-6.230926,0
27:48.4,-3.136278,8.379575,9.49266,-1.196727,-0.809411,-0.079512,-15.785927,-39.699455,-19.840424,-169.322583,-41.953812,-6.353916,0
27:48.5,-0.040416,4.876409,12.992532,-2.059655,1.414307,0.463685,-14.851288,-32.974091,-30.437866,-169.917695,-27.699509,-1.405218,0
27:48.6,1.272953,4.698579,7.028185,-1.889644,1.146533,0.43645,-14.3955,-28.129593,-35.687988,-175.176072,-21.887308,1.020103,0
27:48.7,0.863554,5.03463,6.037994,1.232805,0.411495,1.544895,-17.641388,-29.256592,-32.81076,176.021328,-28.244802,-0.923255,0
27:48.8,1.942361,3.716172,8.995843,0.870345,-0.242091,0.479,-18.616272,-31.717316,-29.63736,175.720415,-32.369966,-3.182176,0
27:48.9,1.287473,5.544919,10.824141,-0.031157,-0.012374,-0.814431,-16.568565,-31.617813,-30.713196,179.568287,-30.884112,-1.281394,0
27:49.0,1.248404,6.297255,9.163345,-0.805977,-0.720779,-0.058153,-17.115524,-31.397179,-30.44043,179.571261,-30.000018,-2.550495,0
27:49.1,1.307082,3.515889,5.194947,0.102541,0.192847,-0.539045,-14.365494,-31.91127,-31.251526,-174.923752,-29.005254,0.343759,0
27:49.2,-0.934058,5.505252,4.69364,0.688262,-0.36561,-0.32306,-15.012192,-34.321793,-28.356445,-173.611737,-32.784113,-2.326097,0
27:49.3,-0.719254,6.643634,10.024654,-0.046542,-0.450635,-0.406934,-15.354645,-34.187706,-28.932007,-170.601816,-30.871303,-4.043577,0
27:49.4,-0.981359,6.075715,13.289514,0.531776,0.86729,0.4113,-15.362793,-33.184311,-30.214752,-173.835224,-29.898691,-2.259163,0
27:49.5,-0.196242,3.285817,8.513995,-0.339214,0.303743,0.088133,-13.910049,-32.780815,-31.295349,-175.327591,-29.520813,1.348463,0
27:49.6,0.678838,3.056045,3.794908,0.106393,0.857479,0.245747,-13.360405,-32.702553,-31.226807,-179.516031,-31.846332,3.652066,0
27:49.7,1.158291,4.394861,7.162605,0.521283,0.743176,1.231998,-15.83741,-31.655563,-30.450653,173.493921,-33.440866,1.410222,0
27:49.8,2.16375,4.213588,10.532248,-0.439336,-0.469353,0.262435,-16.290703,-29.801941,-31.623749,174.983243,-29.780619,0.433136,0
27:49.9,1.877546,4.653673,12.08916,-0.559745,0.124015,-0.728072,-15.158485,-27.68586,-34.478668,179.415883,-22.563555,0.421811,0
27:50.0,1.886377,5.657635,8.994496,-0.313391,-1.3017,0.450025,-19.147308,-27.087318,-32.06781,177.678784,-23.597657,-5.952822,0
27:50.1,0.621358,4.107758,4.147276,-0.483297,-0.257508,-1.063579,-17.134682,-29.065598,-30.85553,-176.541797,-25.119591,-4.922472,0
27:50.2,-2.393074,5.220244,8.543035,0.938827,-0.790541,-0.634807,-16.732193,-32.022263,-28.055054,-171.843632,-28.586611,-7.16909,0
27:50.3,-3.940556,6.662346,10.78612,-0.206636,-0.789947,-0.907808,-14.83522,-32.894691,-28.418762,-168.458797,-28.466665,-3.802712,0
27:50.4,0.461341,4.277505,12.132271,-0.521429,1.78075,0.630868,-15.010078,-30.195145,-31.983093,-173.581369,-25.013219,-0.554796,0
27:50.5,1.407673,1.893413,5.896987,0.442711,0.939107,1.065145,-13.120125,-29.974617,-32.752838,-177.365315,-25.682728,3.161401,0
27:50.6,0.368384,4.011358,4.281546,0.327098,0.936976,0.612665,-13.494049,-30.102798,-32.283813,176.803112,-28.947704,4.650545,0
27:50.7,0.390238,4.713848,11.961177,-0.071851,-0.101691,1.081391,-16.667709,-28.291573,-33.342072,172.297805,-27.927601,0.624177,0
27:50.8,-0.432151,4.929699,12.24304,-0.371963,0.05378,-0.913726,-12.561623,-27.770729,-34.746155,179.185796,-24.010766,5.258295,0
27:50.9,2.208507,4.934489,10.513986,-1.26473,-0.245689,-0.615322,-14.645844,-26.232216,-35.377228,178.588528,-21.602091,1.710317,0
27:51.0,0.213456,2.191742,4.916975,0.707051,-0.56429,-0.336452,-12.31395,-29.169708,-34.179199,-174.80778,-23.963136,2.655228,0
27:51.1,-1.715582,4.536766,4.573439,0.906116,-0.367269,-1.023498,-12.182549,-32.530777,-30.299133,-170.26542,-28.473434,0.938733,0
27:51.2,-4.012855,6.432723,11.047177,0.232815,-0.88323,-0.505159,-12.250008,-32.839218,-29.912689,-165.868092,-26.838198,-0.802676,0
27:51.3,-3.077151,4.098327,14.454542,-0.926253,0.832338,-0.302163,-10.618721,-29.888641,-34.068207,-167.714504,-22.342921,3.569307,0
27:51.4,0.380509,3.109933,10.281819,-0.426759,0.566825,1.017481,-10.481071,-28.58075,-34.972198,-174.030009,-22.845062,6.025652,0
27:51.5,0.662971,2.416724,3.075055,0.423583,0.637149,0.410828,-9.679321,-30.441895,-32.871338,-176.893523,-27.85289,8.51902,0
27:51.6,-0.05269,4.479435,5.883216,1.047143,0.723293,1.137442,-11.582649,-31.323898,-31.488251,176.680011,-31.800815,6.827258,0
27:51.7,0.782124,3.386707,11.495046,-0.248427,-0.940699,0.168232,-12.532387,-29.524872,-32.399719,-179.914296,-27.270384,4.41804,0
27:51.8,2.29398,5.262606,14.129418,-0.950608,0.242702,-1.201304,-12.64476,-27.14933,-35.330658,-176.24486,-21.351094,3.160929,0
27:52.0,0.92328,3.860173,7.875872,-0.307383,-1.171533,0.094258,-13.330139,-28.303696,-33.041107,-173.605256,-22.570938,0.263404,0
27:52.1,-0.536185,2.698888,4.068539,0.104496,-0.334045,-1.577515,-11.506844,-31.70134,-30.920837,-165.230491,-25.580015,0.227897,0
27:52.2,-3.0294,4.917274,6.556067,1.019687,-1.169201,-0.699638,-12.172974,-34.625198,-27.753235,-160.250228,-29.135145,-4.236255,0
27:52.3,-5.225633,6.572981,12.499607,-0.31098,-0.785913,-0.915326,-10.010269,-33.968086,-29.86731,-155.275458,-25.663072,-1.791446,0
27:52.4,-0.282762,3.57771,14.360088,-1.085127,1.175445,-0.012796,-8.713608,-30.176758,-34.011902,-158.127505,-20.004531,2.654754,0
27:52.5,1.584605,2.847379,6.616691,0.522226,1.024093,1.357562,-8.712112,-30.258118,-34.566254,-164.432177,-22.611223,5.664028,0
27:52.6,0.40401,3.628006,3.77021,1.073768,0.783819,1.060496,-10.466827,-32.779175,-31.153564,-171.083558,-29.846548,5.794556,0
27:52.7,1.009501,3.167713,10.096654,0.21397,-0.002403,0.770934,-13.023094,-32.555313,-29.835297,-172.980459,-30.456858,2.321242,0
27:52.8,-1.035247,5.032834,11.249706,-0.387351,-0.135136,-1.104068,-8.820923,-32.26931,-32.09671,-165.677645,-26.204703,6.336372,0
27:52.9,2.685266,6.293363,11.744128,-1.397564,-0.35052,-0.357578,-12.242302,-29.586334,-33.687592,-168.244743,-22.374874,1.064849,0
27:53.0,0.42302,3.164869,4.53976,0.508322,-0.285951,-0.425345,-9.972176,-31.871185,-32.386383,-162.70223,-24.663092,2.481053,0
27:53.1,-1.593137,3.930526,4.842131,1.191746,-0.607381,-0.894691,-10.158058,-35.802605,-27.854645,-157.847471,-29.692849,-1.498817,0
27:53.2,-4.003874,4.81354,10.65619,-0.29579,-0.819387,-0.805191,-9.564957,-34.905106,-28.988617,-153.227792,-26.382927,-1.710929,0
27:53.3,-1.768423,3.453618,14.647191,-0.453638,0.85272,0.346636,-7.631218,-31.153671,-33.722839,-154.424505,-20.513449,2.305532,0
27:53.4,1.116828,3.240012,8.514743,-0.37527,1.309779,1.013338,-7.173004,-30.271912,-34.422028,-160.779017,-20.880082,5.955706,0
27:53.5,0.743803,3.663033,3.771707,0.097327,1.06196,0.807311,-8.811424,-31.95446,-32.311859,-167.615689,-26.252073,6.781009,0
27:53.6,0.50026,2.732119,8.061935,0.97008,-0.050956,1.202433,-11.712608,-32.607376,-31.498627,-170.893115,-28.979757,3.527077,0
27:53.7,-0.962648,3.127147,10.518177,-0.513155,-0.683024,-0.828552,-9.002098,-31.560715,-33.3992,-164.701805,-24.333688,5.457027,0
27:53.8,3.226391,5.313051,14.478192,-1.400782,-0.201441,-0.715272,-9.974731,-26.770599,-36.155426,-164.782887,-16.405515,2.773531,0
27:53.9,0.914748,3.429069,6.544091,0.370038,-0.362136,0.28789,-8.745544,-28.860542,-35.265167,-161.466466,-18.824093,3.062529,0
27:54.0,-0.859213,3.095563,4.114793,0.406199,0.140881,-1.315599,-7.264412,-32.371872,-32.198151,-155.041168,-22.877126,2.519011,0
27:54.1,-3.981121,3.812721,9.692195,0.582836,-1.035658,-0.793302,-7.324089,-33.561783,-30.932678,-149.624006,-23.18232,-0.904259,0
27:54.2,-5.229375,5.632936,15.019018,-0.758009,-0.361746,-0.792949,-6.257492,-31.782127,-33.448059,-149.318636,-19.925789,1.663433,0
27:54.3,-0.695603,3.035238,13.051809,-1.445978,0.514065,0.283347,-5.434807,-29.060318,-35.791138,-153.561504,-16.815055,5.405069,0
27:54.4,1.310076,2.041155,4.300407,0.508097,1.045452,1.010971,-4.247688,-30.555077,-34.267731,-158.918373,-21.589207,9.131923,0
27:54.5,0.661624,3.795358,4.547094,1.523414,0.581639,1.52334,-8.282883,-33.635284,-30.945587,-167.082084,-29.407231,7.278632,0
27:54.6,0.707579,2.370321,11.099568,0.238026,-0.627093,0.707915,-10.810486,-33.234612,-30.237366,-166.037114,-28.279215,3.261359,0
27:54.7,0.129181,4.48677,12.970378,-0.867078,0.12641,-1.484335,-6.279182,-30.873978,-34.127045,-159.181597,-20.833482,6.666814,0
27:54.8,2.068698,5.512886,10.215956,-1.120283,-0.767009,0.34598,-9.311378,-29.172783,-33.54895,-160.967473,-19.523501,1.465914,0
27:54.9,0.238304,3.006049,4.950356,0.110321,-0.397668,-1.046648,-6.650818,-30.832375,-32.972778,-152.918092,-20.682745,1.662082,0
27:55.0,-1.921105,4.311035,5.814509,0.978045,-1.250256,-0.964548,-7.778572,-34.358231,-29.422516,-147.113776,-24.921682,-3.875685,0
27:55.1,-4.950505,5.713169,11.264525,0.153407,-1.060822,-0.998648,-6.862236,-34.726463,-28.425964,-141.861851,-25.117818,-5.22305,0
27:55.2,-0.174238,1.930086,15.069463,-0.601592,0.751741,-0.239866,-3.46917,-31.593262,-33.22641,-140.216588,-18.612589,1.095586,0
27:55.3,1.170865,2.912194,8.085287,-0.199941,1.328405,1.20987,-1.558273,-31.42395,-33.549194,-145.188458,-19.419175,6.759727,0
27:55.4,1.738784,3.495082,4.295617,0.092314,0.956134,0.673479,-3.604706,-33.201103,-31.330261,-151.283786,-24.168497,7.496014,0
27:55.5,1.620829,3.225792,8.597072,1.022349,0.015495,1.296986,-6.622414,-34.341034,-29.048615,-154.86401,-28.075208,3.730891,0
27:55.6,-0.238005,4.095334,10.430609,-0.115722,-0.865441,-0.805082,-3.606026,-34.515923,-29.964508,-146.96389,-25.779708,5.096073,0
27:55.7,2.972668,4.905898,13.695919,-0.752359,-0.220972,-1.261305,-2.987122,-31.737236,-32.54483,-141.790002,-19.5478,2.546788,0
27:55.8,1.029858,3.450026,6.178252,0.359073,-0.747096,-0.066992,-3.199684,-33.525627,-30.525513,-137.524305,-22.568882,0.019977,0
27:55.9,-0.90397,3.423082,4.669091,0.200876,-0.505716,-1.604747,-1.412376,-35.215973,-27.88269,-129.585484,-26.015213,-3.472241,0
27:56.0,-3.610193,5.526358,8.950787,0.564964,-1.932282,-0.892186,-2.46228,-36.378441,-26.357605,-123.856199,-27.6835,-10.155529,0
27:56.1,-4.243376,6.146369,15.712825,-0.467129,-0.672897,-0.252351,-2.986824,-35.211113,-28.097748,-124.053986,-24.738775,-9.105836,0
27:56.2,0.071402,3.970493,11.475437,-1.237663,1.411983,0.070599,0.135063,-33.453186,-30.009064,-127.684377,-21.980698,-0.551115,0
27:56.3,1.411565,2.345622,5.210515,0.294742,2.151833,0.604297,2.434067,-33.610725,-29.594421,-132.102613,-23.208028,7.550592,0
27:56.4,0.945584,3.321742,5.652995,0.836985,0.990572,1.604199,-1.8106,-35.705032,-25.970428,-141.935064,-29.757583,6.650502,0
27:56.5,1.493444,2.80367,9.622141,0.492303,-0.273201,0.998933,-4.032387,-35.356728,-25.916779,-143.98016,-29.936043,3.80671,0
27:56.6,1.616938,4.80875,13.120665,-0.556228,-0.043969,-0.580896,-3.744499,-32.557724,-29.209076,-142.203915,-23.181833,2.383645,0
27:56.7,1.92365,5.701943,9.451046,-1.158072,-1.287837,0.557462,-8.014793,-30.931335,-29.677429,-144.795398,-21.788966,-4.54102,0
27:56.8,-0.527802,3.394042,5.177433,0.069614,-0.410968,-0.8626,-6.13015,-32.361145,-28.443665,-138.12909,-23.560086,-5.080055,0
27:56.9,-2.792293,5.115612,6.587052,0.804223,-0.910093,-0.639637,-7.966888,-34.260498,-24.781219,-136.727242,-27.735104,-11.039134,0
27:57.0,-4.118685,6.079458,11.848461,0.126817,-0.788973,0.009252,-8.772446,-33.273987,-24.259186,-137.371184,-26.702283,-12.534785,0
27:57.1,-0.151485,2.536475,14.223123,-0.717343,1.139157,0.623624,-7.67347,-29.772957,-28.444733,-140.511809,-20.735689,-6.311104,0
27:57.2,2.251169,1.158142,8.401729,0.273065,1.826954,1.543491,-6.672966,-28.651054,-29.448578,-148.380963,-20.902651,-0.28631,0
27:57.3,0.690963,3.034939,3.804339,0.642569,1.116446,1.146766,-7.135513,-29.891663,-27.392548,-156.958756,-27.101042,2.450696,0
27:57.4,1.094823,4.487967,8.310718,0.592749,0.725134,1.724482,-10.206879,-29.379135,-26.009247,-165.817801,-28.947264,-0.399591,0
27:57.5,1.078807,4.793482,11.502081,-0.458648,-0.31226,-0.148243,-10.106476,-28.334503,-27.311005,-163.159803,-24.909478,-0.568084,0
27:57.6,2.828069,4.578978,12.380305,-0.893842,-0.446814,-0.392203,-10.515778,-25.898163,-28.88205,-161.070552,-19.663325,-3.465969,0
27:57.7,1.042283,3.357219,6.508915,0.138081,-0.419869,-0.028897,-10.710335,-27.069496,-28.0755,-158.676912,-20.389435,-5.249806,0
27:57.8,-0.604742,4.045188,5.844895,0.189314,-0.414932,-0.866573,-9.702217,-29.219093,-25.270569,-155.118365,-24.12492,-8.178835,0
27:57.9,-1.466351,4.694089,9.231453,0.395647,-0.890926,-0.612038,-8.893349,-31.341431,-24.032166,-150.795468,-26.104815,-9.331133,0
27:58.0,-2.44277,5.680537,11.556718,0.179708,0.538253,-0.340433,-8.322586,-32.320229,-24.245789,-152.838365,-27.057106,-5.315648,0
27:58.1,0.376467,3.700155,11.186687,-0.304959,0.730915,0.521749,-9.780556,-31.502953,-25.524994,-156.358027,-25.583475,-3.659011,0
27:58.2,1.483266,3.193908,6.284831,-0.034785,1.194746,0.318873,-8.230682,-30.414291,-28.161896,-158.100952,-23.811306,1.228915,0
27:58.3,1.084944,4.367318,5.558541,0.366791,0.771284,0.868228,-10.316849,-31.243538,-27.403534,-164.018447,-27.149397,1.049792,0
27:58.4,2.315984,3.595523,9.234447,0.665074,-0.052971,0.564264,-11.897995,-33.069382,-25.805725,-164.703628,-30.36718,-0.657556,0
27:58.5,0.576302,5.834417,11.365715,0.026915,-0.421974,-0.704612,-9.422989,-33.315231,-26.666046,-159.40931,-28.868404,1.956342,0
27:58.6,1.574127,5.152286,9.023835,-1.57623,-0.868977,-0.445627,-11.385262,-31.349541,-28.327087,-158.383692,-24.977385,-2.240057,0
27:58.7,-0.625699,2.564018,5.353617,0.540457,-0.355847,-0.923151,-8.209183,-32.680298,-28.001495,-149.601979,-24.585602,-1.519159,0
27:58.8,-1.920057,4.425397,7.150031,0.214787,-1.192248,-1.16071,-9.275383,-34.002953,-26.18457,-144.953245,-26.526635,-7.823138,0
27:58.9,-1.128803,5.470823,10.220446,-0.456203,-0.478919,-0.32477,-10.342972,-34.206429,-26.185089,-145.241487,-26.21459,-9.379278,0
27:59.0,0.132624,4.212091,15.61403,1.07392,0.709565,0.697604,-8.837036,-33.102371,-28.576813,-146.641334,-23.44684,-3.184021,0
27:59.1,1.757196,4.564308,9.308842,-0.845756,1.115205,0.276189,-6.938774,-31.045341,-31.021423,-149.988224,-21.246868,1.98549,0
27:59.2,0.73557,3.70285,3.292104,0.208612,0.854477,0.81095,-9.451134,-32.687927,-28.708679,-156.927162,-26.815858,2.292648,0
27:59.3,1.143322,3.578758,6.301745,1.613897,-0.35393,1.202443,-13.538383,-35.190536,-23.929962,-162.297838,-33.767876,-3.95043,0
27:59.4,0.820594,3.713777,8.10265,0.435241,-0.867791,-0.705756,-11.005501,-36.794907,-22.404633,-154.102606,-34.536404,-3.409062,0
27:59.5,3.980972,4.810247,13.689483,-1.424799,0.20625,-1.942004,-8.253548,-32.474182,-30.522583,-146.103254,-21.51115,-1.420348,0
27:59.6,1.512605,4.039051,8.927435,-1.405055,-0.902421,0.778022,-10.193581,-30.261421,-32.074036,-146.290938,-17.667629,-5.697029,0
27:59.7,-0.272733,3.704946,4.959487,-0.139941,-0.147579,-0.982861,-10.126823,-32.615097,-29.712646,-143.198474,-21.732771,-8.436091,0
27:59.8,-2.520159,5.620811,11.242671,1.130932,-1.257831,-0.24809,-10.367172,-34.410484,-27.363251,-140.658045,-24.720361,-11.283135,0
27:59.9,-5.084177,4.75576,15.332616,-0.620084,1.216177,-0.78151,-1.65332,-33.006538,-30.677338,-138.291184,-21.975038,5.058541,0
28:00.0,-0.415087,3.6307,9.76659,-0.83408,1.578558,0.372314,0.46801,-33.27317,-31.027466,-142.994211,-23.174493,11.654066,0
28:00.1,0.0241,3.636538,4.278702,0.410655,1.019989,0.809525,-0.24395,-34.73571,-28.956604,-148.051368,-27.658015,13.184474,0
28:00.2,0.499511,4.151617,5.71766,1.583213,-0.15661,1.557667,-6.238533,-38.995735,-22.915802,-154.5295,-38.078304,7.553192,0
28:00.3,1.978286,3.713178,7.555388,1.292945,-1.095719,0.329111,-7.356163,-40.373474,-18.675018,-152.21322,-42.185399,3.500401,0
28:00.4,2.223177,6.334527,11.085797,-0.76109,0.113984,-1.010826,-5.424721,-38.040459,-24.422302,-147.63552,-33.00168,3.051314,0
28:00.5,1.092129,6.27061,7.947723,-1.375154,-1.512234,0.481041,-10.182899,-35.44603,-26.133392,-150.229032,-28.459845,-5.613668,0
28:00.6,-0.62989,4.016148,5.57366,-0.6574,-0.958822,-0.585889,-10.595078,-35.488373,-26.068054,-146.144544,-27.725419,-9.22039,0
28:00.7,-2.838398,5.506898,8.879086,0.486605,-0.907828,-0.593046,-9.730453,-36.897484,-24.666321,-141.611972,-29.487478,-10.017771,0
28:00.8,-5.002597,8.786429,13.19551,-0.448513,0.505194,-0.949007,-5.832985,-36.654465,-26.475555,-139.719688,-28.252997,-1.83999,0
28:00.9,-0.421973,4.320915,11.785442,-0.227502,2.340332,0.69509,-2.650299,-35.042473,-29.747925,-144.798532,-25.852849,8.190381,0
28:01.0,0.980162,2.311194,5.820347,0.370212,1.73109,1.337031,-2.223824,-35.877998,-29.626007,-151.312077,-28.644633,13.183957,0
28:01.1,0.179626,3.407215,3.640729,0.423351,0.411753,1.011819,-5.625656,-36.648781,-27.434326,-158.237799,-33.178587,11.54336,0
28:01.2,0.200433,4.29412,9.070538,0.38243,-0.08166,1.12996,-9.555252,-36.53228,-26.380524,-162.571011,-34.223875,6.674549,0
28:01.3,-0.023651,5.754034,11.153756,-0.785912,-0.382464,-0.675286,-7.542671,-35.096138,-28.989349,-158.537473,-29.770284,7.271635,0
28:01.4,2.533332,5.912555,10.963202,-1.369552,-0.898178,-0.383605,-9.456337,-32.011047,-32.170654,-158.20371,-23.297469,2.886877,0
28:01.5,-0.278271,2.939138,5.026098,0.538715,-0.565632,-0.241493,-8.132118,-33.925774,-30.232239,-152.756549,-25.164845,1.679834,0
28:01.6,-1.936523,3.62112,5.483248,0.453019,-0.731197,-1.298043,-7.935585,-36.272606,-26.61441,-147.164637,-28.476608,-3.020598,0
28:01.7,-3.19301,5.505701,10.890453,0.115662,-1.411806,-0.450001,-8.465721,-35.88414,-28.041565,-143.968343,-25.546295,-4.602899,0
28:01.8,-3.363056,6.320606,14.700181,-0.267505,1.085211,0.378415,-7.512039,-33.573303,-30.634033,-149.20791,-23.033883,0.67201,0
28:01.9,-0.052241,3.702251,10.394984,-0.763672,1.19667,1.034942,-7.531227,-32.386101,-32.650085,-156.037039,-22.937653,5.280744,0
28:02.0,0.978815,2.070943,3.481909,0.304845,0.941545,0.608964,-6.970337,-33.428139,-30.969666,-160.563084,-27.561387,7.949001,0
28:02.1,0.071252,3.949986,6.330486,1.072866,0.594493,1.333362,-10.275703,-34.144005,-29.083435,-168.078895,-31.794448,5.758985,0
28:02.2,0.444126,3.975134,10.887459,0.084186,-0.767747,0.435295,-11.546158,-33.55191,-29.704132,-166.925481,-29.753185,3.360177,0
28:02.3,1.945504,6.600374,12.790153,-0.850017,0.310472,-1.027922,-10.952896,-31.241402,-32.387634,-164.952501,-24.580028,3.70748,0
28:02.4,1.08674,3.995192,7.182664,-0.198022,-1.166865,0.655088,-12.17321,-31.149567,-32.463287,-164.225882,-24.31478,0.262264,0
28:02.5,0.085323,2.996768,3.315455,-0.097707,-0.288338,-1.436241,-11.623108,-33.843254,-29.031342,-159.12205,-27.483939,-1.653514,0
28:02.6,-2.768643,4.87611,8.423134,0.944967,-1.539115,-0.030131,-13.368149,-35.528603,-27.519531,-155.534046,-28.487445,-7.425387,0
28:02.7,-5.536836,7.577243,13.337564,-0.987816,-0.268717,-1.17564,-10.069962,-33.95871,-30.594879,-151.770202,-24.268477,-1.726177,0
28:02.8,0.040566,4.542454,13.047468,-0.914822,0.983446,0.503093,-9.734047,-32.086525,-32.427887,-156.046551,-22.246061,0.353206,0
28:02.9,2.525249,2.588567,6.802754,0.660484,0.728391,0.331917,-7.758293,-32.890968,-32.450439,-156.878396,-23.861063,3.827958,0
28:03.0,1.059048,3.553461,4.728517,0.956497,0.603716,0.680303,-8.55764,-35.115494,-29.362427,-161.233626,-30.381589,4.676632,0
28:03.1,1.141227,3.583847,7.205716,0.668297,-0.228996,0.513088,-10.080322,-36.414558,-25.903961,-162.14238,-33.823025,1.923844,0
28:03.2,-0.351469,5.214706,11.703862,-0.156928,-0.635673,-0.638047,-8.736061,-35.885834,-27.372955,-156.772441,-29.782044,1.578534,0
28:03.3,2.407593,6.397995,11.22875,-1.617366,-0.662767,-0.960344,-9.571884,-32.751724,-30.605347,-155.447219,-23.793499,-1.674071,0
28:03.4,0.552651,3.217409,5.72739,0.532327,-0.92827,0.175047,-9.66201,-33.499786,-29.328583,-152.241829,-24.827846,-3.950726,0
28:03.5,-3.265759,4.412374,5.008585,1.171653,-0.787899,-0.472154,-11.139687,-36.511604,-24.104797,-151.025855,-31.428838,-9.230505,0
28:03.6,-3.730692,6.207741,10.694511,-0.077565,0.187325,-0.647434,-5.112167,-37.355644,-24.697845,-141.77847,-31.296798,-0.417664,0
28:03.7,-4.279451,4.465364,15.048357,-1.115791,2.88079,-0.800816,0.67334,-34.220512,-30.058685,-142.752852,-24.567147,10.664139,0
28:03.8,-0.004341,2.617457,10.692116,-0.310528,0.627151,1.460132,-1.494232,-32.846245,-31.056274,-153.941014,-25.655509,13.316998,0
28:03.9,-1.796414,2.516267,4.40968,-0.317484,0.566117,1.369259,-3.921684,-31.485939,-31.559998,-166.376295,-28.486549,15.761037,0
28:04.0,-0.829874,3.376678,7.127279,-0.261009,2.808158,2.76508,-6.297943,-30.55217,-32.50827,-177.60935,-31.674383,17.017232,0
28:04.1,-0.499062,4.4724,9.618099,-0.971985,0.691733,-0.117505,-3.962036,-27.795349,-35.407776,-177.04269,-25.962507,20.658119,0
28:04.2,-1.547033,3.800297,13.237872,-1.397961,0.795431,-1.246456,-2.085014,-24.07988,-38.666901,-173.664189,-16.836141,21.24661,0
28:04.3,-2.321971,1.199456,8.303682,-0.328164,-1.325691,-0.478505,-3.123459,-23.548683,-39.307251,-168.210859,-13.471667,16.723704,0
28:04.4,-3.037633,2.98644,5.673053,0.925741,-0.909999,-1.054958,-4.238159,-28.557076,-35.669861,-160.864431,-17.947552,11.452578,0
28:04.5,-4.519552,3.717519,8.666079,0.742985,-1.867796,-1.859125,-7.331047,-31.518661,-32.254456,-150.538408,-20.311092,0.306132,0
28:04.6,-2.806214,2.172582,18.122364,0.226724,-0.87442,0.039747,-10.052719,-28.746162,-33.925537,-156.693779,-16.59871,-0.115298,0
28:04.7,3.742966,2.189497,11.194471,-1.644577,-0.401331,2.279069,-19.316055,-25.700401,-32.384369,-171.59916,-18.095172,-7.815425,0
28:04.8,2.663262,2.689607,2.374662,1.367542,-0.68935,1.946294,-24.417542,-26.485466,-28.189697,177.548378,-24.842914,-13.181508,0
28:04.9,2.238745,4.636758,4.007466,1.813669,-0.415572,0.887547,-26.674728,-27.228828,-24.749084,170.36929,-29.860276,-15.331349,0
28:05.0,4.861291,3.867058,10.688972,0.063173,0.389059,0.230234,-26.561729,-26.453117,-25.322235,172.773769,-27.591578,-14.819357,0
28:05.1,5.947133,4.504732,13.490247,-1.462739,0.159377,-1.054437,-24.495819,-25.223389,-29.097443,-178.998779,-20.772994,-12.410929,0
28:05.2,3.479065,3.20259,8.096364,-1.016602,-0.911153,-0.841977,-23.175919,-28.247665,-27.768677,-171.908906,-21.383196,-13.579537,0
28:05.3,-0.119901,1.838477,3.430416,0.04989,-0.177802,-2.144518,-17.487228,-32.962944,-26.511505,-160.393198,-24.961428,-10.85951,0
28:05.4,-2.462679,4.817582,6.325696,0.928511,-1.091024,-1.240844,-15.905144,-36.329498,-21.957703,-154.810291,-29.108886,-14.42979,0
28:05.5,-5.0011,7.049291,14.08002,-0.903803,-0.742052,-0.782638,-14.155937,-32.783569,-28.243866,-153.331778,-21.858807,-8.198232,0
28:05.6,-2.162553,3.718118,15.795753,-0.94299,3.242561,1.271662,-10.912323,-29.454514,-33.284393,-160.42874,-17.893704,3.737865,0
28:05.7,2.766397,0.568069,6.752608,0.627473,1.351579,1.747433,-12.941299,-29.833977,-32.516937,-168.976617,-22.129651,5.061321,0
28:05.8,1.247356,3.04901,3.103646,0.414207,0.822747,1.116259,-15.847977,-30.960823,-30.687897,-177.449689,-28.801393,3.274489,0
28:05.9,2.632725,5.088518,8.649763,1.125227,-0.703881,1.399685,-22.353294,-30.521896,-26.756073,175.674493,-31.608517,-6.305932,0
28:06.0,0.775238,5.081034,13.802198,-0.982001,-0.640507,-0.450813,-19.822052,-28.865669,-30.943237,-176.583921,-23.643228,-2.754454,0
28:06.1,4.220174,3.287015,11.614048,-2.596413,-0.614294,-1.326704,-20.576302,-24.453514,-35.091766,-173.116591,-13.551216,-4.524798,0
28:06.2,0.821192,2.418072,5.287754,1.131408,-1.166868,-0.176573,-20.925926,-29.18679,-30.469391,-169.486535,-19.723148,-9.39964,0
28:06.3,-1.407972,3.023113,5.036127,0.937134,-0.922165,-1.232398,-19.815048,-33.94368,-24.546814,-163.147816,-25.773084,-13.964923,0
28:06.4,-2.765798,4.910389,10.877281,-0.261133,-0.7398,-0.9847,-18.206299,-33.539719,-27.199707,-159.118846,-21.415245,-11.425788,0
28:06.5,-1.214425,4.149222,15.553706,-1.165516,1.16405,0.968618,-19.113914,-29.452202,-32.353851,-164.867657,-15.761197,-6.915921,0
28:06.6,1.994902,1.244811,10.981165,-0.681371,0.755938,1.066809,-19.639175,-27.497749,-34.830536,-170.916377,-14.365177,-3.870856,0
28:06.7,1.38492,1.491798,3.516338,0.387638,0.557812,0.555406,-20.631355,-29.627403,-33.173218,-177.27584,-19.911622,-2.4698,0
28:06.8,0.861459,3.893254,6.035599,2.114727,0.15685,1.726535,-26.136215,-31.687759,-27.570953,172.744608,-28.226209,-7.144674,0
28:06.9,2.426903,4.243076,11.131901,0.228116,-0.372272,0.689088,-27.930283,-31.690376,-27.242126,171.643751,-27.244195,-9.047966,0
28:07.0,4.990472,4.305796,12.641811,-0.922294,0.539469,-0.642964,-24.976562,-29.631302,-32.160187,175.848744,-20.001263,-6.000946,0
28:07.1,3.568729,4.335434,7.610923,-0.303497,-0.611291,0.508806,-25.726707,-30.126686,-29.079742,175.544087,-21.364611,-10.11911,0
28:07.2,0.197589,2.843337,4.073928,-0.173244,-0.379842,-1.269709,-22.202904,-33.405251,-26.401764,-176.71735,-23.811503,-10.950616,0
28:07.3,-1.737587,5.091961,7.661817,0.569575,-1.327655,-1.009854,-20.967285,-34.978355,-23.645111,-171.811219,-25.585016,-15.134849,0
28:07.4,-2.669998,6.8044,13.354928,-0.600085,-0.623169,-0.79711,-18.379906,-34.153297,-27.033936,-167.432538,-22.053743,-11.604356,0
28:07.5,1.484164,2.79858,14.15726,-0.984117,1.230221,0.145928,-16.235184,-30.399658,-32.012115,-167.842403,-16.465807,-5.71572,0
28:07.6,2.281106,1.099763,6.471343,0.177871,0.948585,0.400421,-14.797386,-30.183167,-32.720154,-168.693478,-18.054905,-2.486215,0
28:07.7,0.070952,3.352129,3.533402,0.938101,0.888379,0.285368,-15.055168,-33.08654,-28.587189,-173.627614,-25.819974,-2.188706,0
28:07.8,2.449656,3.713478,10.514734,0.852982,-0.057077,1.486079,-19.811592,-31.441544,-27.71109,178.992159,-26.521094,-7.045262,0
28:07.9,1.645528,5.222939,11.49789,-0.636318,0.17757,-0.451768,-17.836609,-30.684196,-29.937408,-176.902306,-23.320649,-4.28714,0
28:08.0,4.975952,5.25138,10.456506,-0.907362,-0.403221,0.026416,-20.629616,-28.723366,-30.455688,-178.748657,-21.270283,-8.911505,0
28:08.1,1.83698,2.741848,5.098997,0.680528,-0.646252,-0.224153,-19.309959,-30.835373,-28.656128,-173.855203,-23.486601,-10.004862,0
28:08.2,-0.202379,3.934119,4.466262,0.575255,-0.777081,-1.118735,-18.466599,-34.502563,-24.104095,-167.579962,-28.054929,-13.942596,0
28:08.3,-0.590372,4.552633,10.023306,0.037949,-0.998466,-0.977066,-18.127335,-35.027481,-23.757904,-161.220359,-27.483409,-16.79856,0
28:08.4,0.386646,5.329817,15.259717,-0.364601,0.370007,-0.291029,-16.639565,-34.004936,-26.784271,-159.93176,-25.160853,-13.028839,0
28:08.5,2.773582,3.933221,10.427466,-1.118023,1.737147,0.826046,-15.515968,-31.535057,-30.589813,-164.501641,-22.489227,-6.340978,0
28:08.6,1.415906,3.18358,3.822601,-0.131073,0.937199,0.383845,-14.022285,-31.56739,-31.361603,-167.731926,-23.779474,-1.905503,0
28:08.7,1.502575,4.085305,5.665568,1.604708,-0.013435,0.880813,-16.750175,-33.879959,-27.127441,-172.635484,-30.308322,-5.105898,0
28:08.8,1.766177,3.166216,10.193802,-0.067152,-0.398407,-0.135042,-15.42337,-33.597443,-28.333954,-169.038878,-28.046018,-4.719351,0
28:08.9,2.886448,5.109175,13.077106,-0.847691,-0.323695,-0.886067,-15.320847,-31.463463,-31.782654,-164.148264,-21.51979,-6.386923,0
28:09.0,3.925886,5.335654,8.71832,-0.78314,-1.422342,0.317976,-19.132866,-30.979996,-29.610168,-165.30957,-22.035699,-12.730982,0
28:09.1,0.817749,3.345842,4.522396,0.050453,-0.068959,-1.160547,-15.395592,-33.113914,-29.008667,-157.931754,-24.249494,-10.380341,0
28:09.2,-0.83197,4.960235,6.340515,0.566568,-0.902208,-1.0245,-14.53318,-35.604996,-26.529755,-152.913125,-26.473334,-13.036087,0
28:09.3,-1.447939,6.42,10.960058,-0.222461,-0.577268,-0.30571,-15.169876,-35.132553,-27.69931,-152.392,-25.322375,-13.71192,0
28:09.4,1.429378,2.688858,14.897171,0.230295,0.738036,0.262326,-13.31823,-33.90287,-30.508636,-151.991689,-22.632525,-9.171437,0
28:09.5,2.226171,2.70727,7.986642,-0.28058,1.348388,0.220244,-9.502335,-33.183777,-32.056824,-152.630637,-22.063912,-2.813424,0
28:09.6,1.691483,4.137097,4.737498,-0.014619,1.039104,0.56049,-11.653236,-33.990746,-31.130463,-158.625813,-25.202103,-2.792991,0
28:09.7,2.794838,3.920048,8.208181,0.843825,-0.313328,1.205792,-16.057152,-34.944191,-27.987793,-164.137835,-28.405207,-7.956587,0
28:09.8,3.151546,3.3662,8.382419,0.098852,-0.768831,-0.247746,-14.398209,-35.577591,-28.385376,-159.965931,-27.935132,-8.183487,0
28:09.9,4.390819,4.601431,10.326576,-0.456904,-0.485314,-0.887831,-14.098358,-33.616699,-30.965973,-154.807503,-23.035822,-9.878422,0
28:10.0,1.959276,4.21269,8.306077,-1.022791,-0.710087,-0.560721,-13.249931,-32.562111,-32.881165,-148.503342,-19.569106,-11.746408,0
28:10.1,1.246159,5.077441,5.944888,-0.872535,-0.131882,-1.293482,-11.702568,-32.992874,-33.773346,-142.779226,-18.952233,-12.232542,0
28:10.2,0.909958,5.358557,8.92534,0.459403,-0.712291,-0.07274,-13.334557,-33.301613,-31.874817,-143.358215,-20.495735,-15.277452,0
28:10.3,-2.052232,7.657626,12.050391,0.677002,-0.183138,0.402618,-13.034088,-37.554207,-28.362335,-146.22566,-27.733088,-13.631729,0
28:10.4,0.696352,1.98622,12.390184,0.490218,0.830018,-1.007364,-5.00087,-37.342682,-32.012024,-136.872373,-25.17164,-3.261624,0
28:10.5,3.116369,3.163222,6.482569,-0.741553,1.601149,-1.02694,-1.441292,-36.02784,-34.88327,-136.544952,-22.326858,1.665176,0
28:10.6,1.392404,5.375621,4.638704,1.259337,-0.135179,1.727423,-7.419449,-39.980003,-28.746613,-145.483986,-30.943875,-4.435595,0
28:10.7,2.812052,3.921545,9.250613,0.906456,-0.516153,0.64717,-9.891785,-41.159119,-26.236115,-145.979682,-32.784257,-8.898382,0
28:10.8,1.839974,5.995033,10.626103,-0.510853,-0.204685,-0.763717,-6.665573,-40.265755,-28.540833,-139.843309,-30.060651,-7.429585,0
28:10.9,4.397106,5.835166,9.579629,-1.437569,-1.029123,-0.623565,-7.649414,-38.177788,-31.151672,-136.443486,-25.563199,-11.183621,0
28:11.0,1.653462,3.086132,4.567901,1.242286,-1.403776,-0.372508,-5.541702,-40.668274,-28.540649,-129.591432,-29.543282,-13.643915,0
28:11.1,-0.435444,4.052223,4.220773,-0.024479,-0.505994,-1.576234,-2.709923,-42.024452,-26.411835,-120.671115,-32.606062,-15.378511,0
28:11.2,-2.208807,4.630022,12.258907,-0.426422,-0.907627,-0.990523,-0.943748,-39.650703,-30.575043,-112.147059,-28.050812,-15.560689,0
28:11.3,-2.276316,6.220764,14.82562,-1.36632,0.303509,-0.010216,-0.045692,-36.856674,-33.170929,-114.5947,-22.230847,-10.563596,0
28:11.4,2.57749,3.470832,11.961476,-0.873056,1.207947,1.384274,-1.379997,-35.095909,-34.267914,-123.444865,-19.041806,-5.275437,0
28:11.5,2.002685,2.14968,3.811973,0.39529,1.480761,1.249937,-2.031738,-37.979111,-31.150238,-131.100237,-24.044453,-1.375014,0
28:11.6,0.926573,4.330944,3.332819,1.852097,0.726808,1.26665,-5.368713,-40.886131,-25.342377,-138.602927,-31.958553,-2.906484,0
28:11.7,2.689906,3.107688,10.918146,0.194382,-0.095807,0.670623,-6.775398,-38.765991,-27.695831,-138.599463,-27.49966,-5.053105,0
28:11.8,2.504143,1.901047,15.17649,-2.559106,-0.176507,-0.8996,-4.999741,-31.820396,-36.371124,-132.486463,-13.54034,-4.465436,0
28:11.9,4.031566,4.102219,9.467063,-2.283484,-0.637014,-0.054701,-7.991653,-29.427757,-37.901367,-133.672491,-10.688334,-8.07666,0
28:12.0,1.550326,2.152524,3.824996,1.193474,-0.711692,-0.788832,-5.347946,-33.3713,-33.90448,-127.24847,-16.211736,-8.951588,0
28:12.1,-1.199456,3.464246,7.63158,0.828204,-0.812447,-1.455193,-3.749313,-35.814384,-32.046143,-118.558863,-19.79604,-12.86665,0
28:12.2,-3.190316,3.71737,14.382541,-1.690664,-0.697589,-1.213899,-1.160706,-30.430923,-37.756134,-112.714548,-11.01118,-9.845924,0
28:12.3,0.598456,2.544708,15.198195,0.150794,0.872464,0.831896,-1.628204,-30.356071,-37.207581,-118.636213,-11.022999,-7.104644,0
28:12.4,3.410807,0.810564,8.634644,0.862888,0.742682,0.84152,-0.502281,-32.773178,-34.762115,-122.11998,-15.963654,-3.760373,0
28:12.5,1.777853,3.134033,3.277734,0.973787,0.685498,0.130566,-0.782936,-37.296097,-28.930786,-125.025312,-24.520913,-2.567975,0
28:12.6,1.579366,4.10671,7.468569,1.732288,-0.315405,0.495486,-1.975204,-39.195595,-26.408813,-126.522166,-28.67124,-4.722343,0
28:12.7,2.06765,3.708538,11.226205,-0.68864,-0.80263,-0.868165,1.241867,-37.53257,-28.862488,-117.917055,-25.477682,-3.91519,0
28:12.8,4.787943,4.903204,12.591216,-1.025313,-0.259247,-1.573448,2.579155,-34.302292,-33.287354,-111.501835,-19.973898,-5.753448,0
28:12.9,2.083068,2.412832,6.409372,0.123228,-0.680017,-0.410125,4.713211,-35.465897,-31.636902,-104.433076,-23.293978,-8.261675,0
28:13.0,-0.628393,3.5587,3.913761,0.852085,-0.826984,-1.832683,6.261642,-38.361664,-27.46994,-96.434766,-31.813927,-12.136647,0
28:13.1,-1.409918,6.012846,9.670789,1.097154,-1.993541,-0.938968,5.802223,-38.270485,-27.859894,-91.183017,-33.213794,-16.647461,0
28:13.2,-2.201322,6.905889,14.709911,-1.53489,1.071487,-0.484003,8.958275,-36.014847,-30.04303,-88.471711,-29.818934,-10.842956,0
28:13.3,2.16405,3.831432,10.5794,-1.321075,0.462544,-0.262303,11.54641,-33.734329,-32.026825,-89.305777,-25.444048,-4.078387,0
28:13.4,2.155518,3.78473,5.372029,1.102105,0.387032,0.865029,10.723213,-36.5345,-28.509613,-94.041894,-29.016018,-3.125321,0
28:13.5,0.92807,4.179908,4.24622,1.119255,0.295517,1.114021,7.710213,-40.716362,-23.17749,-100.599703,-36.424841,-6.119635,0
28:13.6,2.08726,3.25064,8.050559,0.40481,0.14343,-0.120758,8.750114,-40.477966,-23.822693,-97.167783,-35.754284,-5.179698,0
28:13.7,1.2505,6.580166,11.369158,-0.886596,-0.058854,-1.021603,11.756454,-37.32296,-27.516083,-91.465599,-30.262408,-3.401987,0
28:13.8,4.524192,6.611152,10.928923,-1.897157,-1.377723,-0.059177,8.689514,-33.885719,-32.552429,-91.384854,-24.55036,-8.464977,0
28:13.9,0.732876,2.568509,5.503605,1.331355,-1.13451,-0.85119,11.194511,-34.988434,-30.561584,-82.999848,-30.049896,-9.756103,0
28:14.0,-1.229843,3.889063,4.606221,0.506246,-0.854317,-1.666909,11.188568,-35.822083,-28.960388,-76.138602,-35.897842,-14.666684,0
28:14.1,-2.331252,6.605314,8.020471,0.519917,-1.498601,-0.284932,8.709496,-36.160606,-29.643799,-75.730551,-36.3412,-19.859201,0
28:14.2,-2.245331,6.987769,15.412999,-0.456219,0.323518,0.58599,8.531799,-34.719238,-31.952911,-78.473339,-31.170002,-16.804586,0
28:14.3,1.983675,3.867807,10.66592,-2.006006,0.765397,0.718557,9.908264,-32.872681,-32.773376,-82.854845,-25.363257,-10.835259,0
28:14.4,3.951633,3.407963,5.278473,-0.165845,1.391613,1.243656,9.991989,-34.197586,-31.809296,-91.690517,-24.17831,-6.164475,0
28:14.5,4.109255,5.728587,6.282286,1.244719,0.866083,1.536862,5.894913,-38.853683,-27.135071,-101.222353,-30.76001,-8.632762,0
28:14.6,3.592829,3.635789,7.902217,0.828403,-0.91625,0.357071,6.906372,-39.38237,-26.392059,-97.541641,-32.689815,-9.921046,0
28:14.7,3.68818,5.061125,12.797487,-0.103839,-0.214924,-1.609191,10.557594,-34.879448,-31.557434,-87.585024,-27.009192,-8.134439,0
28:14.8,2.358645,5.489534,8.056397,-1.70172,-1.165782,0.680706,7.41938,-34.002213,-33.653687,-85.947307,-26.054184,-14.276903,0
28:14.9,0.037871,3.492537,4.145479,-0.624129,-0.155115,-1.26501,9.910843,-33.39399,-32.995178,-78.936796,-28.706967,-14.900628,0
28:15.0,-0.272134,3.746559,9.027128,1.077126,-1.163982,-0.882897,9.337868,-33.893211,-32.434418,-74.461402,-31.707384,-18.552185,0
28:15.1,-2.806664,4.627028,15.476916,-0.918585,-0.506537,-0.203589,12.657089,-31.228653,-34.499542,-71.391563,-27.613109,-11.770662,0
28:15.2,1.665586,4.757407,10.813813,-1.887,1.840093,0.098448,16.067307,-29.659225,-35.065552,-76.162378,-22.602771,-4.230088,0
28:15.3,2.509681,3.379373,4.712351,0.641145,0.659954,1.061043,15.432171,-32.173897,-32.353485,-83.640521,-24.683335,-1.941346,0
28:15.4,1.712888,5.02505,4.663253,1.432885,0.320039,1.518921,11.529083,-38.664566,-26.65155,-91.19075,-32.710655,-5.293408,0
28:15.5,2.782863,4.20281,10.143806,0.623675,-0.162498,0.051954,12.427681,-38.472862,-26.788391,-88.411294,-33.5195,-5.61174,0
28:15.6,2.562222,6.710246,12.04141,-0.788738,-0.353915,-0.89435,13.740398,-35.267242,-31.091522,-82.863658,-28.63967,-5.946152,0
28:15.7,3.568878,5.147346,9.031469,-1.251813,-1.47832,-0.398532,12.117302,-32.202461,-34.83313,-78.065538,-25.181828,-10.917825,0
28:15.8,0.474214,2.431843,4.798422,0.330279,-1.12869,-1.494879,14.619118,-30.411644,-35.503571,-67.625137,-27.261398,-11.817652,0
28:15.9,-0.630639,4.918023,7.631879,0.504762,-1.276702,-1.223157,12.822075,-31.02282,-36.017853,-62.405668,-31.531568,-17.977929,0
28:16.0,-2.439477,5.92423,10.743309,-0.581837,-0.955854,-1.066902,14.979488,-27.976624,-37.666412,-56.330456,-29.518061,-14.651527,0
28:16.1,2.066902,5.909561,14.168786,0.449336,1.126454,0.643962,15.374466,-29.288559,-36.540588,-61.864764,-28.246139,-12.339148,0
28:16.2,3.588039,2.637216,8.036189,-0.340045,0.888401,0.427508,18.506382,-29.378624,-35.246216,-62.88342,-27.914815,-6.858754,0
28:16.3,1.190774,2.980452,3.273393,0.108718,0.689388,-0.046288,20.895332,-31.852364,-31.495361,-64.96793,-31.268643,-3.466851,0
28:16.4,0.802332,4.530928,6.34755,1.417634,-0.237461,0.607423,18.036209,-35.692268,-29.283447,-68.676927,-36.299117,-7.995189,0
28:16.5,2.12573,5.156327,12.593761,-0.492469,-0.506065,-0.290276,17.655903,-32.29808,-33.331116,-65.038673,-29.994051,-8.450678,0
28:16.6,5.566325,4.392316,12.548405,-1.631957,-0.962299,-0.509898,16.27364,-23.828682,-40.440704,-60.090788,-18.804573,-10.079133,0
28:16.7,2.37077,4.533473,5.880072,-0.068269,-0.530558,0.172805,12.602203,-27.093414,-39.881744,-60.116146,-25.270847,-17.185064,0
28:16.8,0.018561,2.559378,4.365372,-0.350349,-0.522889,-1.40354,14.064262,-25.22374,-40.394318,-51.585468,-26.87692,-16.662813,0
28:16.9,0.005239,4.427792,9.559122,0.922615,-1.241127,-0.864531,11.865616,-25.558578,-40.817413,-47.717903,-29.641469,-20.379788,0
28:17.0,-2.98644,7.010821,11.86313,-0.938691,0.328498,-0.722547,16.478409,-24.150574,-40.078461,-46.126401,-28.71831,-13.722672,0
28:17.1,1.704505,4.430487,11.38712,-0.142035,1.231601,0.583804,18.166931,-24.758797,-39.42453,-51.670836,-25.678844,-9.572681,0
28:17.2,2.066303,2.12573,5.996231,0.534225,0.710967,1.104258,20.312572,-25.88282,-37.881897,-55.32947,-25.707406,-6.268508,0
28:17.3,0.659379,3.668272,5.514233,0.230642,1.224383,0.424375,20.432396,-29.143524,-34.325378,-60.012708,-29.404182,-4.888385,0
28:17.4,2.63991,4.290378,10.325977,0.34316,-0.066997,0.841067,18.128567,-30.62738,-34.36615,-63.147917,-29.908473,-7.309815,0
28:17.5,2.217189,5.965395,11.01694,-0.232879,0.017047,-0.410103,18.541092,-28.468605,-36.27124,-60.21381,-27.814752,-7.590643,0
28:17.6,3.442541,4.689897,10.388996,-1.09361,-0.884577,-0.345961,16.729244,-24.610413,-39.876221,-57.087079,-23.487112,-10.429573,0
28:17.7,1.121468,2.685865,5.135221,0.854682,-0.59166,-0.532775,17.481766,-25.543777,-39.017365,-52.19908,-27.214587,-10.863141,0
28:17.8,0.040266,4.003275,5.505851,0.148051,-0.228403,-0.982559,17.141228,-26.333008,-39.378387,-48.286319,-30.568324,-13.054322,0
28:17.9,0.489781,5.137467,11.177556,0.333985,-0.976344,-0.333521,15.044041,-25.061974,-40.568634,-45.100373,-30.059737,-15.238762,0
28:18.0,0.025746,6.841673,11.654015,-0.134948,0.809877,0.135226,16.854347,-25.775459,-39.853241,-48.590467,-29.582857,-12.53178,0
28:18.1,2.573448,4.91952,9.440419,-0.683345,0.588058,0.74767,16.169044,-26.840881,-39.077484,-53.089721,-29.556125,-13.020731,0
28:18.2,1.071023,2.223027,3.99624,0.585976,0.039193,0.072958,18.624809,-28.274147,-36.485382,-52.73432,-32.117055,-9.104975,0
28:18.3,1.136886,4.89542,6.359076,0.836783,0.746983,0.061421,19.212601,-31.069916,-33.520416,-55.307704,-35.441696,-8.257899,0
28:18.4,2.339635,5.916297,11.212434,-0.071917,-0.063838,0.142815,19.652092,-29.231148,-35.660492,-53.342326,-33.030793,-7.613112,0
28:18.5,3.039879,6.072572,11.847563,-0.637698,-0.364063,-0.4449,18.629375,-25.780838,-38.588562,-50.641734,-28.680753,-9.812829,0
28:18.6,2.850223,4.613107,7.207662,-0.485888,-0.724107,0.096366,16.403358,-25.534416,-39.327881,-50.38411,-29.052226,-13.188886,0
28:18.7,1.156495,2.268083,3.660638,0.285504,-0.335414,-0.570146,17.818253,-25.949387,-39.203217,-45.86152,-31.808911,-12.567431,0
28:18.8,-0.968187,6.004164,6.442902,0.615896,-0.38858,-0.752788,17.035091,-26.323082,-39.496643,-43.062911,-34.330368,-14.352115,0
28:18.9,-1.233136,8.012238,12.140055,-0.770918,-0.567421,-0.162838,17.271233,-23.383331,-41.730774,-41.980784,-29.85624,-13.267153,0
28:19.0,2.219884,4.277954,11.368409,0.565021,1.068091,0.883747,18.688568,-25.177757,-39.992767,-47.466679,-29.26573,-11.289975,0
28:19.1,3.38042,3.485352,7.317683,0.326949,0.815969,0.88171,18.26947,-28.415878,-37.704773,-52.536106,-31.49292,-12.106727,0
28:19.2,-0.098196,3.950435,4.568649,0.059004,0.231743,-0.067565,20.387539,-28.685783,-36.447998,-52.49515,-31.95492,-8.6744,0
28:19.3,1.972448,4.703369,9.21843,0.271511,0.043707,0.371281,18.59222,-29.431396,-35.867981,-54.708639,-32.24093,-10.722131,0
28:19.4,2.863246,5.516478,10.117461,-0.34604,-0.235748,-0.39801,19.631809,-27.533318,-36.202545,-51.883087,-31.729527,-9.179899,0
28:19.5,3.709436,5.382657,10.487641,-0.033518,-0.252527,-0.515757,19.353493,-25.076111,-37.651978,-48.234706,-29.60354,-9.432085,0
28:19.6,2.140249,3.665577,6.603069,0.158173,-0.447019,-0.218687,19.010349,-24.7379,-37.749237,-44.971936,-31.686419,-10.82776,0
28:19.7,0.286804,2.882406,4.276607,-0.24928,-0.206467,-1.128257,19.90807,-23.75399,-37.967804,-39.037373,-34.536246,-10.871424,0
28:19.8,-2.106869,5.383705,7.277566,0.846911,-1.34332,-0.57065,17.057117,-23.263214,-38.293121,-35.393586,-37.288753,-14.464007,0
28:19.9,-4.354295,7.885452,12.115805,-0.824564,-0.241315,-0.464696,18.654839,-20.023506,-39.68631,-34.886833,-31.908971,-11.727407,0
28:20.0,1.635948,4.728367,16.0616,-1.211549,0.816732,1.107408,18.766075,-18.548409,-40.127808,-42.98967,-24.37989,-10.685716,0
28:20.1,4.164041,2.610871,5.293442,1.214921,0.990997,2.013374,20.363647,-25.571434,-35.243134,-53.74401,-30.252477,-9.405236,0
28:20.2,0.234413,3.37563,1.468596,1.751289,1.48961,0.76606,21.412102,-32.019196,-27.735016,-60.734646,-39.040271,-8.189523,0
28:20.3,1.515898,4.541107,8.818312,0.427269,0.210983,1.023267,17.559032,-32.942146,-29.363159,-66.139543,-35.913923,-13.172722,0
28:20.4,2.182611,3.650609,13.245356,-2.524637,-0.557615,-0.402645,21.752457,-22.916489,-35.965332,-56.082296,-22.049819,-6.104739,0
28:20.5,7.183412,3.703149,14.687607,-2.824821,0.339939,-1.041762,21.763676,-16.639565,-39.544128,-53.446968,-13.372483,-5.907823,0
28:20.6,1.654509,1.841471,6.041586,2.424904,-1.365229,-0.871982,22.23756,-21.88401,-36.416016,-45.334345,-27.302627,-9.677843,0
28:20.7,-1.863625,2.331552,2.959945,1.407572,-0.774456,-2.39389,22.128536,-22.417625,-36.365082,-31.720109,-38.969542,-12.839637,0
28:20.8,-3.056195,4.29412,7.930059,1.18092,-4.039494,-2.175156,13.263191,-20.037903,-41.546417,-18.515668,-41.414331,-22.671692,0
28:20.9,-2.114054,5.535339,16.748372,-2.342744,0.158701,0.348973,12.780807,-13.113899,-44.062469,-19.566248,-29.355959,-20.432751,0
28:21.0,4.108955,2.844834,15.243401,-1.772801,1.347557,1.842926,16.510498,-12.183136,-43.199371,-31.099633,-21.065121,-14.306619,0
28:21.1,4.22706,2.504143,4.213588,2.012501,1.542514,1.929043,20.297146,-22.512466,-37.609497,-43.738672,-29.880231,-10.76968,0
28:21.2,1.742975,3.753295,0.887953,1.796796,1.18642,1.631031,18.371052,-31.506935,-31.665192,-55.327781,-39.614916,-14.690799,0
28:21.3,5.738167,4.933291,6.122718,1.719103,-0.812934,0.701966,11.02195,-34.714401,-31.429871,-60.532221,-42.162535,-26.948332,0
28:21.4,7.898325,6.71324,11.143727,-2.516996,-0.780447,-0.146485,10.79702,-25.571732,-39.916595,-49.304421,-30.279001,-23.39465,0
28:21.5,8.452922,6.688391,11.633957,-1.989949,-2.013047,-1.195272,7.670532,-19.348495,-44.032501,-39.837021,-25.340832,-26.442218,0
28:21.6,3.394192,3.281925,5.577701,0.976698,-1.396205,-1.601289,6.376221,-21.384445,-43.63147,-29.634153,-34.740591,-29.095513,0
28:21.7,-1.305286,2.793042,4.127068,1.03002,-2.050338,-2.924928,3.368515,-25.321014,-41.556732,-16.853279,-49.413005,-34.138635,0
28:21.8,-1.931883,5.709128,8.331974,1.110629,-2.529626,-1.929897,-1.409035,-26.877411,-40.426636,-11.799781,-54.431711,-40.958773,0
28:21.9,5.389393,7.711514,13.726605,-1.195638,-0.407725,1.116121,-5.993736,-24.05703,-41.993073,-17.644398,-46.613214,-45.675756,0
28:22.0,10.07435,7.110364,7.667954,0.085038,0.72462,1.781954,-4.259544,-25.576591,-41.366272,-30.401164,-42.743161,-46.245399,0
28:22.1,4.219875,4.878056,-2.561773,1.96746,0.842888,0.420022,-2.754173,-32.965675,-35.270508,-44.847234,-49.596546,-53.397981,0
28:22.2,4.038602,6.22256,-2.316882,2.710117,-0.456194,-0.074862,-3.996063,-39.594574,-26.428955,-62.845253,-56.247396,-71.972574,0
28:22.3,6.974596,5.276228,5.347031,-0.65067,0.336962,0.220001,-1.923401,-33.883759,-34.125824,-46.731619,-49.763088,-52.474444,0
28:22.4,7.154223,7.55449,2.874772,-1.591193,0.856033,-0.339796,-1.655792,-31.244064,-37.29245,-42.708372,-46.728369,-49.803691,0
28:22.5,10.728041,9.991572,7.27577,-0.783812,-1.485408,1.724918,-7.710365,-26.334892,-39.841583,-41.287403,-37.300195,-51.158191,0
28:22.6,3.790268,4.832102,2.872976,0.197619,0.609301,-1.144058,-2.259026,-28.143066,-39.712616,-35.177497,-46.552638,-46.53206,0
28:22.7,-1.889221,1.832639,0.375868,0.984339,-0.360042,-2.449102,1.807907,-32.952553,-34.934387,-30.521494,-61.553901,-48.616389,0
28:22.8,0.271236,6.474337,7.384145,1.116886,-2.295209,-1.212462,-5.324089,-32.479485,-35.10968,-27.185075,-61.697937,-58.60891,0
28:22.9,6.863976,12.14215,14.896423,-2.460238,-0.849573,1.895252,-7.401062,-22.673607,-41.692566,-20.192717,-46.019927,-48.640061,0
28:23.0,5.536237,8.773555,9.094338,-1.338585,2.568496,1.312963,4.955544,-19.736107,-43.558258,-21.932228,-40.457795,-30.612766,0
28:23.1,3.042872,5.088818,4.123625,0.696783,3.539231,0.051767,19.500721,-21.479958,-38.757568,-23.733996,-43.20619,-11.378617,0
28:23.2,1.638493,4.09219,4.610562,0.962678,2.946984,0.095713,27.78886,-25.321098,-29.890778,-25.763124,-49.03498,1.681451,0
28:23.3,1.27415,5.486391,5.694309,1.041314,1.693958,0.343696,31.261997,-25.994789,-25.544678,-25.820335,-51.713244,8.375661,0
28:23.4,-0.414039,9.791888,7.544461,-0.112787,1.239957,0.010596,31.950558,-25.888306,-23.842682,-27.001441,-50.622006,10.652267,0
28:23.5,0.671354,8.478219,7.598349,-0.848121,-0.345572,0.167282,30.62286,-23.918427,-26.629028,-28.565043,-46.175729,6.686948,0
28:23.6,-0.385598,4.730912,5.170398,0.019469,-0.941638,0.064434,29.67807,-23.277161,-28.01001,-26.898774,-46.473009,3.788052,0
28:23.7,-1.874702,7.184909,3.46724,0.929187,-0.978515,-0.228038,28.172249,-25.060783,-27.331421,-25.794765,-51.578788,0.097727,0
28:23.8,-1.151406,9.054521,6.921307,0.348749,-0.282998,-0.184673,26.808826,-25.68576,-27.575439,-25.997207,-52.006976,-2.278335,0
28:23.9,-1.020727,8.684041,9.802665,0.236777,-0.564501,0.416786,23.601948,-26.559128,-27.699554,-28.107017,-53.459526,-7.119135,0
28:24.0,1.208587,6.459966,6.165678,-1.178549,0.643414,0.098813,22.717155,-26.410522,-26.998657,-32.554162,-51.375385,-7.304833,0
28:24.1,-1.042133,5.738317,3.976631,-0.111446,0.421027,0.694381,21.735573,-26.581146,-25.809052,-36.223374,-49.82963,-5.387998,0
28:24.2,0.486937,6.12646,5.065616,0.246677,0.614034,0.550697,19.962479,-27.553047,-24.922943,-40.738766,-50.072741,-5.827979,0
28:24.3,3.562442,5.300328,8.068072,-0.380202,0.191194,0.298313,17.400162,-25.883606,-27.800842,-43.292898,-44.573515,-8.632099,0
28:24.4,7.378007,6.849456,11.35853,-1.191834,-1.097213,0.987534,10.08786,-23.334579,-32.343536,-48.158543,-36.706142,-20.119857,0
28:24.5,4.14518,6.008206,7.035969,-1.545638,-0.652421,-0.00118,9.673973,-19.841385,-35.596893,-44.115699,-31.429211,-20.959838,0
28:24.6,1.048719,4.792135,6.568491,-0.17678,-0.931682,-0.776433,8.806023,-18.077118,-37.866669,-36.278443,-31.859302,-23.068665,0
28:24.7,-1.766177,5.705984,6.346802,-0.014952,-1.200195,-1.241734,6.802284,-17.02346,-38.813782,-29.331603,-34.790125,-26.109843,0
28:24.8,-1.55302,6.186785,9.904903,-0.030055,-0.582233,-0.929385,7.101837,-16.22094,-40.02121,-25.051936,-35.007948,-24.516763,0
28:24.9,0.62495,4.484824,14.583873,-0.333676,1.002565,0.248752,10.564919,-15.471756,-39.367279,-27.242227,-31.853776,-17.901008,0
28:25.0,3.012785,3.233276,8.976683,-0.567217,2.083663,0.915426,16.096317,-15.095665,-38.002625,-32.050523,-27.961703,-8.174458,0
28:25.1,2.580334,3.795058,5.495073,-0.993462,1.479244,0.739808,17.55711,-16.508545,-36.314026,-38.888342,-26.070808,-3.590389,0
28:25.2,2.232009,2.877167,6.649173,1.3365,0.528448,1.375791,16.150658,-22.26918,-34.537323,-45.115377,-31.76664,-3.699462,0
28:25.3,3.858526,3.3183,7.975864,0.423834,-0.14888,0.010447,15.438324,-22.5457,-35.098053,-43.792547,-31.091708,-3.110903,0
28:25.4,5.969886,4.383784,14.027929,-0.556354,-0.735898,-0.263904,11.388008,-17.679184,-39.022461,-40.473195,-24.035803,-8.775059,0
28:25.6,3.836971,5.273384,8.297545,-1.67492,-0.967171,-0.210218,7.789711,-15.565636,-41.418457,-37.821121,-21.919401,-15.300438,0
28:25.7,0.527653,3.125201,6.713988,-0.248205,-1.393578,-1.422586,3.555916,-15.154053,-42.984833,-29.043213,-24.714458,-21.656512,0
28:25.8,-2.355651,3.521128,8.16552,0.724216,-2.413429,-1.435877,-1.913925,-17.488655,-43.323853,-23.065978,-29.908321,-29.201609,0
28:25.9,-3.834277,5.283862,13.600268,-0.394331,-0.407444,-0.686024,0.35569,-16.236588,-43.88736,-20.878366,-28.059011,-25.236291,0
28:26.0,2.124532,2.261048,14.147081,-1.191747,1.045904,0.609937,4.599678,-13.381233,-44.377411,-24.758996,-21.279993,-18.076893,0
28:26.1,5.122348,1.936224,7.329059,0.337115,1.965467,1.857501,8.1604,-18.427223,-43.027222,-36.970886,-21.068818,-11.661185,0
28:26.2,3.664979,3.32758,4.997957,1.333889,1.563785,1.937818,8.398415,-27.36058,-38.15509,-50.972663,-27.390893,-9.880936,0
28:26.3,3.298391,3.345393,8.038284,1.150114,0.595432,1.098509,8.405098,-31.280037,-35.804718,-55.888629,-30.583611,-11.043203,0
28:26.4,2.466271,3.918851,11.993958,-0.590986,-0.018726,-0.425079,11.169662,-26.833839,-39.026978,-51.073354,-24.242442,-10.111368,0
28:26.5,4.670737,4.858896,10.248139,-2.091366,-0.683342,-0.463336,11.015968,-20.807106,-43.09668,-48.949746,-16.85484,-11.918137,0
28:26.6,1.935775,2.724784,6.632258,0.128161,-0.493202,-0.26288,11.968933,-18.942986,-44.139801,-44.435589,-17.65763,-12.619045,0
28:26.7,-0.307161,3.418741,5.641918,0.670977,-0.343924,-0.988629,11.938057,-20.482552,-43.45578,-40.926717,-23.212225,-14.94662,0
28:26.8,-1.583856,3.893254,10.458751,0.397964,-0.452607,-0.685066,11.556953,-20.139389,-43.350067,-38.946634,-24.785052,-16.409497,0
28:26.9,-1.167871,4.297114,15.549814,-0.010269,0.856863,0.490421,14.52441,-18.982521,-42.7854,-43.179677,-21.918852,-12.067513,0
28:27.0,2.487527,3.260969,10.428963,-0.414588,1.069709,0.926578,17.86293,-20.643066,-41.087311,-50.189995,-21.816043,-7.248147,0
28:27.1,2.111958,2.694996,4.201313,0.407084,1.249168,0.847258,20.793652,-24.326553,-37.291534,-56.373354,-25.198203,-3.012113,0
28:27.2,0.577649,4.528084,6.26597,0.927693,0.769901,1.149299,19.816528,-29.095695,-34.004425,-62.624745,-29.122367,-3.267151,0
28:27.3,0.9378,3.541336,10.071656,0.362485,-0.169024,0.249008,20.919647,-27.846161,-34.737946,-60.834575,-28.161611,-2.639531,0
28:27.4,2.85621,4.233496,13.270654,-0.811588,0.323635,-0.520774,21.697388,-22.952507,-37.752747,-57.777175,-22.122295,-2.215347,0
28:27.5,2.753524,4.208498,7.941885,-1.05479,-0.517317,-0.223504,20.914864,-20.889145,-39.12326,-55.216121,-20.492243,-3.58029,0
28:27.6,0.412093,2.070494,5.089117,0.305765,-0.666427,-1.107694,19.907391,-19.018166,-39.968811,-46.941305,-22.195955,-4.526027,0
28:27.7,-2.212399,3.621719,8.25189,0.597499,-1.102781,-1.106502,16.848949,-19.213005,-41.350677,-41.212733,-24.97151,-9.314662,0
28:27.8,-3.081492,6.472391,11.941118,-0.474863,-0.785104,-0.509679,17.090027,-16.32206,-41.593353,-38.861813,-21.912088,-7.899586,0
28:27.9,-2.117197,4.003724,14.129717,-0.14922,1.009381,0.730514,20.246517,-16.066101,-39.299408,-43.857308,-18.36545,-1.759335,0
28:28.0,0.862806,1.62038,8.562794,0.031825,0.916555,0.874898,20.699387,-20.33918,-37.357544,-49.416656,-22.293481,0.837831,0
28:28.1,0.546813,1.742826,3.320545,0.759572,0.677458,0.458928,20.356358,-25.401016,-33.878235,-54.062078,-28.294929,2.764797,0
28:28.2,0.50969,4.063151,8.084837,1.199721,0.177978,1.197631,15.913403,-29.24295,-32.213287,-61.972602,-31.358598,-1.979569,0
28:28.3,0.311652,5.148843,12.306658,-0.67866,-0.442785,0.552582,14.977463,-25.962242,-34.948181,-61.056805,-25.564254,-1.864312,0
28:28.4,4.263284,3.734434,13.447586,-1.914488,-0.111059,-0.890257,15.256477,-18.932213,-38.829407,-57.557999,-15.900003,-1.738051,0
28:28.5,2.070195,3.022066,6.669381,0.22679,-0.357298,-0.035273,14.778561,-19.850914,-39.291138,-55.121332,-19.132595,-3.753634,0
28:28.6,-0.526904,2.943479,4.828659,0.794848,-0.506131,-1.217024,14.273453,-23.161858,-37.683228,-49.164057,-26.178738,-6.980588,0
28:28.7,-1.908382,4.806355,8.23737,1.177103,-1.861931,-0.798264,10.52446,-25.443954,-38.224854,-45.979898,-31.827451,-15.163281,0
28:28.8,-1.905837,7.272028,11.575129,-0.240632,-0.288637,-0.342233,11.626129,-23.696182,-38.321442,-47.038984,-29.277299,-12.699612,0
28:28.9,0.436642,5.00619,12.798685,-0.495945,1.276567,1.193023,13.886169,-23.531975,-38.103851,-53.500224,-26.293851,-7.89682,0
28:29.0,2.62539,2.071393,6.61684,0.47596,1.845581,0.72011,16.872581,-24.884026,-35.239349,-56.734598,-27.280625,-0.286991,0
28:29.1,1.515149,4.244424,3.843857,0.263899,1.069081,0.693084,15.906277,-28.317154,-33.47876,-63.359429,-30.952181,0.664162,0
28:29.2,0.427661,4.773274,8.558004,0.700183,-0.188514,1.15366,12.184166,-30.035606,-32.33078,-67.407829,-32.852277,-3.369091,0
28:29.3,0.869691,4.410578,12.573553,-0.726398,-0.545937,-0.789713,14.350491,-24.278313,-35.202057,-59.640622,-25.789419,0.09583,0
28:29.4,4.346511,4.244274,12.192595,-1.44375,-0.289739,-0.999406,13.609772,-20.006264,-37.953125,-56.949851,-19.34106,-1.385375,0
28:29.5,1.368903,3.008743,5.626051,0.99893,-0.85236,-0.148511,13.558784,-21.882965,-37.522339,-52.381456,-24.312642,-4.188872,0
28:29.6,-1.01489,3.073858,5.184469,0.283558,-0.860599,-1.571585,12.041138,-22.59668,-38.416077,-44.446723,-28.946678,-9.228096,0
28:29.7,-3.949986,5.013375,10.040371,0.706358,-2.052592,-0.964316,9.205154,-22.489044,-38.272919,-40.316543,-30.798453,-15.267407,0
28:29.8,-2.455643,7.842491,13.79172,-0.83675,0.728569,-0.034807,10.604843,-21.086349,-38.613342,-44.00085,-26.785805,-11.764653,0
28:29.9,1.08674,4.312682,12.503948,-0.811781,1.47051,1.42584,11.658058,-22.394287,-37.383392,-52.089294,-24.731675,-5.879389,0
28:30.0,2.978656,1.183439,4.882098,0.960717,1.546575,1.097098,13.386017,-28.447807,-34.140686,-59.042862,-29.84127,-0.380399,0
28:30.1,1.236579,4.187692,3.513494,1.327371,1.318138,1.206978,10.510513,-36.325096,-28.32309,-69.488916,-37.249336,-1.283091,0
28:30.2,2.275568,4.42899,8.614885,0.449813,-0.042925,1.037748,8.545547,-36.510704,-28.365143,-73.612332,-34.876408,-5.13507,0
28:30.3,3.425028,4.624034,14.419664,-1.622704,-0.196712,-0.633443,11.651993,-30.99173,-33.42395,-69.174592,-24.914268,-5.869193,0
28:30.4,3.900289,5.545368,9.025332,-1.67676,-0.62935,-0.339727,12.008499,-28.929192,-35.796631,-68.71375,-22.398756,-9.312629,0
28:30.5,0.14445,3.157983,4.688251,0.782955,-0.867206,-1.022082,15.240688,-27.895897,-35.911469,-60.863236,-26.589447,-10.308698,0
28:30.6,-1.570534,4.887037,7.92991,1.025656,-1.547054,-1.437183,13.585777,-29.196899,-36.319366,-54.848453,-33.189309,-17.177116,0
28:30.7,-2.05328,7.080426,8.061785,0.068893,-0.770716,-0.739816,15.628777,-28.323303,-35.994507,-51.660544,-35.00494,-15.589838,0
28:30.8,0.441282,9.044492,13.20524,0.511388,0.771741,0.560747,16.598286,-29.694305,-35.335602,-56.587762,-33.848711,-14.034429,0
28:30.9,2.576742,4.583469,8.120014,-0.633163,0.927568,0.111788,20.989948,-29.414116,-33.180939,-56.76823,-34.106665,-8.259466,0
28:31.0,0.996328,4.327351,4.995262,0.412544,0.338062,-0.308189,24.785061,-31.247925,-29.318512,-55.74689,-38.979678,-4.255962,0
28:31.1,1.506168,5.056186,8.510103,1.604086,-0.001979,-0.049048,26.470291,-33.110283,-25.122589,-55.283935,-45.082554,-4.980757,0
28:31.2,1.856889,6.996002,9.083112,-0.90429,-0.289262,-0.635562,29.200855,-28.967781,-27.115173,-52.944066,-40.810274,-3.837502,0
28:31.3,2.419718,6.479127,7.457941,0.069401,-0.96713,0.732443,28.037579,-27.172318,-31.185242,-54.861832,-38.343613,-8.726819,0
28:31.4,1.015488,5.128186,5.123995,0.192772,0.271406,0.491058,26.873798,-26.132256,-32.31012,-54.834993,-39.63637,-10.437134,0
28:31.5,0.035327,6.071225,5.323081,-0.282193,0.101,-0.269966,25.194157,-24.452057,-34.441315,-52.009059,-40.605013,-10.586892,0
28:31.6,0.200882,7.971373,7.816146,0.478373,-0.532821,-0.144034,22.132069,-23.668686,-35.778778,-49.308361,-41.740175,-10.981417,0
28:31.7,-1.548829,8.591534,7.377558,-0.155415,0.522745,0.179669,20.162651,-25.653839,-34.53299,-50.347529,-43.479933,-9.086722,0
28:31.8,1.520987,4.610263,8.496631,-0.158464,0.555355,-0.360404,18.416824,-23.287796,-36.636292,-47.248924,-38.261479,-5.730809,0
28:31.9,0.820743,5.471123,5.623506,-0.616086,0.060589,0.847696,15.051868,-22.801941,-38.3909,-48.381259,-34.127676,-6.92171,0
28:32.0,1.022224,5.605244,6.737938,-0.622718,0.570165,0.137334,12.752838,-23.639954,-38.534546,-47.883184,-33.408018,-7.336794,0
28:32.1,1.261277,4.734055,8.81457,0.793268,-0.43388,-0.414666,12.615906,-24.804192,-36.897705,-41.707713,-35.661702,-5.944847,0
28:32.2,2.030977,5.500611,10.885364,-1.262751,0.832777,-0.907365,12.229919,-22.747749,-38.077271,-39.912114,-31.394423,-5.422764,0
28:32.3,3.134632,4.44815,9.022039,-0.646911,-1.024753,0.321264,9.372231,-19.864189,-40.734772,-39.81461,-25.464475,-8.605801,0
28:32.4,1.338816,4.118236,5.864355,0.267622,-0.660287,-0.180319,7.753548,-20.4132,-41.06546,-38.045385,-26.6448,-12.734831,0
28:32.5,0.001347,5.799989,7.864047,-0.195084,-0.926199,-0.418917,4.280251,-20.82412,-41.610962,-35.771018,-27.769964,-18.588981,0
28:32.6,-1.921105,5.532196,9.712253,-0.15714,-0.770714,-0.869601,6.063683,-19.504555,-42.152039,-29.38028,-27.691917,-15.756657,0
28:32.7,-1.520688,4.384832,12.353511,0.214139,1.089691,-0.10224,9.629776,-20.063835,-41.55127,-31.203429,-27.584041,-10.380321,0
28:32.8,1.523382,2.150129,10.796748,-0.719224,1.037681,0.564948,13.742287,-18.422569,-41.168457,-34.533195,-22.262141,-3.164197,0
28:32.9,0.764011,3.654949,6.403085,-1.145537,1.132779,0.130046,17.03632,-17.758598,-41.270874,-39.681273,-18.658837,2.147783,0
28:33.0,0.954266,3.899241,6.553821,1.272702,0.285208,1.694777,15.71537,-25.653908,-38.260071,-48.475739,-25.393805,1.241637,0
28:33.1,2.094594,3.24121,8.578212,0.789048,0.249059,0.215545,17.49324,-25.925163,-37.844116,-48.575717,-26.189844,2.51241,0
28:33.2,3.440595,3.67411,12.11356,-0.874671,0.076017,-0.244131,17.033474,-23.010101,-40.241852,-48.331782,-21.443967,-0.744074,0
28:33.3,2.446213,4.602479,8.951535,-0.807089,-1.424416,-0.297767,14.425564,-20.861511,-42.067902,-46.881229,-20.377317,-6.729337,0
28:33.4,-0.084125,3.511847,6.593788,0.124608,-1.276287,-0.937021,12.804176,-18.49556,-43.388306,-41.006254,-21.031931,-11.087557,0
28:33.5,-1.565594,4.100573,8.571476,0.678422,-1.563857,-0.888963,8.794632,-20.380028,-43.886902,-37.814963,-25.563143,-17.908289,0
28:33.6,-2.774331,6.070925,11.426189,-0.264212,-0.188979,-0.777346,11.902557,-19.355255,-43.777924,-35.398788,-25.688586,-13.784977,0
28:33.7,0.070503,4.09728,13.608651,-0.018811,1.539909,0.67866,15.15147,-20.546204,-42.031464,-41.028735,-24.50854,-8.186986,0
28:33.8,2.545457,1.931434,7.330107,0.407999,1.244218,0.838999,17.802925,-23.993713,-39.285889,-46.182795,-26.174564,-3.53197,0
28:33.9,1.80824,4.235442,4.453539,0.635248,1.319068,0.896311,17.83934,-30.973625,-34.512451,-56.009206,-32.621443,-2.036835,0
28:34.0,2.763553,4.356391,7.683073,1.313934,0.179364,1.529649,14.294113,-35.863197,-30.95816,-63.432258,-36.017873,-6.109624,0
28:34.1,2.334396,4.746779,12.05578,-0.8414,0.078663,-0.346581,16.710819,-32.175507,-33.889893,-59.055115,-29.818706,-4.369502,0
28:34.2,2.458038,4.954846,10.299332,-2.497257,-0.689228,-0.999066,17.171844,-24.996925,-39.997223,-56.319736,-20.436701,-5.964349,0
28:34.3,0.674198,3.892056,6.653364,0.128422,-1.186815,-0.203567,14.736588,-24.084534,-41.027069,-54.013099,-21.39118,-11.26406,0
28:34.4,-0.429756,4.091142,7.421716,0.765983,-1.29034,-0.769713,12.160088,-26.244637,-40.403046,-50.9726,-27.639851,-18.506215,0
28:34.5,-2.116,5.409002,9.203461,0.524263,-0.801573,-0.808572,14.032089,-26.036942,-39.77182,-48.022921,-29.086746,-16.37304,0
28:34.6,0.41823,4.672982,15.228881,-0.09334,1.07378,0.690224,16.218742,-24.966934,-39.074463,-54.206425,-24.471443,-12.244498,0
28:34.7,2.655927,3.439248,9.000184,-1.015039,1.113301,1.115267,18.029736,-27.448128,-36.796234,-61.912069,-24.367306,-8.717762,0
28:34.8,2.078877,2.807412,3.741919,0.670999,0.691006,0.918966,18.786819,-30.929398,-32.516846,-67.916203,-27.510819,-6.038124,0
28:34.9,1.39465,5.341492,6.691685,0.953753,0.666365,0.952331,17.262291,-34.344254,-29.322968,-74.153242,-30.609484,-7.204907,0
28:35.0,1.981579,4.830455,9.745035,-0.098017,-0.210156,0.123739,19.494877,-32.458221,-30.587555,-71.387394,-28.789507,-6.121126,0
28:35.1,3.935466,4.212091,12.56068,-0.584208,-0.171004,-0.792495,20.813835,-27.311867,-34.846039,-66.044687,-23.575434,-7.422962,0
28:35.2,2.47645,3.887266,8.268506,-1.331912,-0.539498,-0.551101,21.224072,-22.692047,-37.035156,-61.254285,-20.943533,-8.904796,0
28:35.3,0.195793,2.676285,5.952971,-0.156334,-0.980363,-1.342221,20.11356,-18.656876,-39.662476,-52.788478,-22.064423,-10.633568,0
28:35.4,-1.306034,4.432433,7.912396,0.755635,-1.458786,-0.816247,15.534061,-18.807007,-40.71817,-49.021941,-25.878155,-16.539825,0
28:35.5,-2.321073,6.597231,11.724668,-0.143998,-0.248235,-0.409954,15.801125,-16.980652,-40.673004,-48.256235,-24.103079,-14.471046,0
28:35.6,2.516866,2.891986,14.148877,-0.013059,1.097357,1.108604,15.94463,-16.06324,-40.146606,-52.978152,-20.624666,-11.669091,0
28:35.7,3.123555,1.992507,7.193291,0.226635,1.463393,0.858032,18.099682,-17.415421,-38.516754,-55.895383,-21.321544,-6.259973,0
28:35.8,1.236129,3.48146,4.535568,0.170204,1.127345,0.714854,18.052227,-20.92218,-35.199188,-61.102535,-25.490975,-4.263237,0
28:35.9,1.75061,3.581153,9.104517,1.050575,-0.185362,1.00279,14.828335,-23.300087,-34.89679,-64.281366,-27.812984,-7.045917,0
28:36.0,2.058819,5.050348,11.070529,-0.586259,-0.083021,-0.410504,13.989216,-20.988007,-36.177277,-61.558803,-25.861392,-6.340166,0
28:36.1,4.119733,4.488865,10.63224,-0.519106,-0.552985,-0.428104,11.313095,-18.295883,-38.456116,-58.874459,-22.859861,-8.773248,0
28:36.2,2.715653,3.228636,6.036048,0.6212,-0.905743,-0.078259,8.563293,-19.691154,-39.072449,-55.320111,-25.818932,-13.255547,0
28:36.3,0.302222,3.434159,4.556674,-0.176196,-0.35896,-1.44515,7.019676,-20.11747,-39.103302,-47.62211,-28.400636,-15.05121,0
28:36.4,-2.117497,6.159541,9.586066,0.111508,-0.959653,-1.01184,4.310326,-19.636589,-39.374542,-41.95684,-28.728835,-17.661087,0
28:36.5,-1.552871,7.749535,12.685969,-0.891648,-0.273315,-0.193376,5.360435,-18.621681,-39.945343,-42.433218,-25.826735,-14.148449,0
28:36.6,1.814227,3.907474,12.125834,0.500966,1.063346,1.197433,5.247009,-21.386314,-38.091156,-48.475969,-26.143326,-11.289557,0
28:36.7,3.604804,1.624422,6.566245,0.597824,1.334599,0.491857,5.850189,-25.364388,-36.953278,-52.491417,-29.338907,-8.186212,0
28:36.8,1.312321,3.301085,3.548221,0.865475,1.316267,0.381907,7.738586,-30.685341,-33.338287,-57.720216,-35.995698,-4.224623,0
28:36.9,1.25529,4.112099,8.813073,0.935352,0.567451,0.40702,8.444313,-31.978615,-32.225494,-58.703896,-35.525715,-1.53209,0
28:37.0,1.154998,6.067483,12.438384,-2.061223,0.553202,-0.587846,9.742371,-26.77507,-35.760803,-57.620606,-26.604883,0.487023,0
28:37.1,3.114424,5.756429,10.64197,-1.147955,-0.838729,-0.358616,6.878891,-23.575943,-38.216949,-59.3949,-22.053639,-4.798,0
28:37.2,0.75024,3.405119,5.141059,0.855725,-1.164007,-0.015857,5.566406,-26.151421,-37.466949,-58.437391,-25.972364,-9.704483,0
28:37.3,-0.59127,4.393663,5.879174,0.755828,-0.961985,-0.86689,5.2696,-28.817413,-35.562927,-55.271381,-31.090687,-14.374806,0
28:37.4,-1.532513,5.648803,9.095685,0.01595,-0.728514,-0.873657,7.774406,-27.743668,-35.33075,-50.301712,-30.455918,-11.995032,0
28:37.5,-1.453328,8.29036,11.236983,-0.03137,0.737624,0.18155,8.485725,-29.488228,-33.184326,-55.958015,-31.9933,-10.67692,0
28:37.6,1.171614,4.455634,10.244097,-0.212862,0.264959,0.014764,10.790138,-29.218178,-33.574371,-57.421148,-29.670656,-7.220381,0
28:37.7,1.168919,3.088527,4.834946,0.579203,0.423452,0.517378,13.266373,-31.187416,-31.77356,-60.714357,-31.320324,-3.9574,0
28:37.8,2.450404,5.261858,7.202872,0.734883,0.858506,0.667573,13.401901,-35.253441,-27.790314,-66.5729,-36.675378,-5.166691,0
28:37.9,1.679058,5.723947,9.207353,0.378379,-0.174343,-0.312551,17.628571,-32.813126,-27.918823,-62.394058,-35.082997,-1.624681,0
28:38.0,3.876938,6.067183,12.643607,-0.555805,-0.56201,-0.703691,17.398163,-28.624657,-32.71701,-61.136499,-29.34753,-5.191993,0
28:38.1,0.024848,5.018314,7.288044,-0.817581,-0.44228,0.276206,16.652851,-26.558563,-34.522522,-59.013997,-28.979129,-8.018694,0
28:38.2,-1.235082,2.503993,4.959337,-0.055707,-0.799936,-1.285153,18.629677,-23.611488,-35.657318,-48.429785,-31.075037,-7.00289,0
28:38.3,-0.684377,4.533323,8.467142,0.674676,-1.002484,-1.735834,20.265266,-22.450294,-35.006989,-41.619965,-34.509096,-4.926356,0
28:38.4,-3.478916,7.098389,8.057894,-0.273202,1.216645,0.075202,23.826996,-22.811394,-32.099854,-45.077734,-34.533139,1.0349,0
28:38.5,-0.465532,5.869295,10.658286,1.1154,0.729207,0.783821,23.464748,-24.976479,-30.457916,-49.201092,-36.233289,0.702003,0
28:38.6,0.379311,5.371729,6.369405,-0.846873,0.576818,1.102065,22.671211,-25.98098,-29.99527,-55.287293,-35.451303,-0.803167,0
28:38.7,-0.118254,5.904322,4.79438,0.774408,0.482558,0.78763,21.727505,-29.837181,-26.013214,-60.740774,-41.39597,-2.104067,0
28:38.8,1.512006,5.237459,8.272098,1.026163,0.312793,0.383705,21.544209,-31.398811,-23.721924,-61.26042,-44.731102,-2.923529,0
28:38.9,2.622397,7.269633,9.133407,-0.756468,-0.410421,-0.064457,20.24897,-29.393959,-26.899231,-62.269752,-40.169711,-5.482234,0
28:39.0,2.586322,6.975345,8.341554,-0.608064,-1.034482,0.60248,17.627529,-26.426674,-31.104462,-63.398664,-35.372414,-9.763764,0
28:39.1,-0.275577,3.755091,5.714517,-0.0539,-0.076296,0.031691,16.871357,-24.768646,-32.42511,-59.17244,-34.828599,-8.816661,0
28:39.2,0.214803,5.272037,5.146747,-0.542049,0.534248,-0.749792,17.065617,-23.900574,-32.269043,-55.48706,-35.444775,-5.990012,0
28:39.3,-0.725392,7.698641,7.846383,0.647824,0.130791,-0.37407,17.224903,-24.827011,-30.929871,-52.598237,-37.097631,-3.313421,0
28:39.4,-1.939517,7.550748,10.907967,0.255549,0.764914,0.344892,15.677849,-26.785065,-28.612305,-56.844458,-38.374304,-2.702983,0
28:39.5,0.267793,5.549111,8.965606,-1.054979,0.49211,0.317165,16.712643,-25.872795,-29.710754,-59.495845,-33.324797,-0.010893,0
28:39.6,-0.687969,4.714446,4.906647,-0.123518,-0.211143,0.310849,16.813961,-25.863419,-29.745117,-61.011909,-31.817413,0.45752,0
28:39.7,-0.965792,6.212531,8.288115,0.273674,0.140889,0.399339,15.852577,-28.04071,-28.355896,-64.334847,-33.501846,-2.12615,0
28:39.8,-0.505798,4.51536,9.756561,-0.055465,-0.103874,0.18925,18.107979,-26.947441,-27.913452,-63.01671,-32.074224,1.345825,0
28:39.9,0.63468,3.444038,10.451865,-0.00148,1.048941,0.393065,18.583477,-26.83857,-27.375336,-68.327042,-29.079099,2.299094,0
28:40.0,0.296234,4.209546,7.229816,-1.723319,1.31603,1.066704,20.330929,-24.134438,-28.569336,-72.642789,-22.261674,6.805892,0
28:40.1,1.431623,3.893404,8.060738,-1.797101,0.074178,0.029096,19.47023,-20.198891,-31.693085,-71.531252,-16.539173,3.491805,0
28:40.2,-0.409848,5.138365,9.163195,0.849263,-1.178703,-0.663047,16.906517,-20.996681,-31.42923,-68.20042,-21.642446,-2.947641,0
28:40.3,-1.682651,3.535049,9.517059,0.300406,-1.231532,-0.229604,16.007565,-20.548965,-32.515106,-65.904782,-23.833424,-5.88021,0
28:40.4,-2.31763,3.679349,10.197544,0.525322,0.688054,0.077925,17.902439,-19.523972,-31.136963,-64.400392,-25.471563,0.364964,0
28:40.5,0.284409,3.959716,7.339388,0.280469,2.416279,0.439391,15.347668,-20.900589,-32.353302,-69.820342,-27.361684,0.773124,0
28:40.6,-0.292941,4.797673,6.256839,-1.087798,-0.828019,1.190016,4.655342,-18.941689,-37.358826,-77.836932,-22.88944,-6.972492,0
28:40.7,0.640518,5.552553,7.322473,0.429251,-0.615871,0.92359,-7.314987,-21.780319,-38.30896,-85.002211,-27.31993,-12.188081,0
28:40.8,6.081553,7.224576,9.523196,0.862338,0.352755,1.050345,-21.554436,-23.075668,-39.034332,-90.654742,-28.269777,-14.322078,0
28:40.9,2.805616,1.892065,11.416759,0.242816,0.720581,0.973146,-29.894302,-29.583405,-40.273224,-94.707474,-28.016526,-12.980919,0
28:41.0,2.681524,4.666696,7.118447,1.141961,-0.421126,-0.332369,-22.614555,-40.402946,-32.925934,-93.394137,-31.125067,-14.325706,0
28:41.1,1.450783,5.181774,5.194199,-0.161421,-0.212172,-0.180431,-9.927391,-42.629021,-27.850861,-91.144391,-33.68301,-14.518669,0
28:41.2,1.584605,4.436624,6.731651,0.633409,-0.37252,-0.708101,-4.614418,-40.110741,-26.994904,-90.360856,-36.683875,-16.236011,0
28:41.3,1.631308,6.571485,7.810757,-0.243419,-0.112591,0.578506,-7.274162,-38.044922,-28.290344,-91.372723,-36.569132,-17.222899,0
28:41.4,-0.611778,5.296286,12.327615,-0.343034,1.154975,-0.086407,-8.051636,-37.091652,-31.928406,-90.404665,-33.313822,-10.023271,0
28:41.5,1.483266,3.632047,6.671626,-0.369344,-0.372753,0.289505,-9.593918,-38.960564,-32.810974,-90.75097,-30.900872,-9.443943,0
28:41.6,1.641936,7.288793,5.081483,0.141495,0.433934,-0.114563,-7.10865,-42.017609,-29.370789,-90.162675,-32.288423,-6.771744,0
28:41.7,2.33709,5.987998,8.151299,0.276404,0.759025,0.30827,-5.159241,-43.343185,-24.737854,-95.692408,-31.793197,-8.052553,0
28:41.8,2.40445,6.647377,12.264895,0.137167,-0.907742,0.008358,0.875809,-42.373894,-21.639526,-95.75259,-34.341724,-9.479711,0
28:41.9,2.2603,6.03485,8.580607,-0.695661,-0.278321,0.864804,3.912827,-40.571281,-22.30545,-95.524549,-33.785719,-11.669749,0
28:42.0,0.497565,3.190914,5.216203,0.946895,0.041269,-0.82193,8.293251,-38.99852,-22.396118,-90.971074,-35.305306,-9.431547,0
28:42.1,0.155676,5.554499,5.606441,0.115245,-0.397072,-1.07971,12.923508,-37.145767,-21.707458,-83.627114,-37.23168,-5.573194,0
28:42.2,1.007405,6.146518,9.443562,-0.248882,-0.42907,-0.42021,12.646049,-35.640686,-23.891998,-83.905071,-34.556655,-8.036228,0
28:42.3,2.888543,4.096531,12.220437,-0.870765,-0.696755,0.809154,7.102463,-33.08815,-29.148926,-88.84752,-26.681225,-15.338986,0
28:42.4,0.845741,5.080735,8.930728,-1.674209,0.555289,0.533188,8.351097,-31.412697,-31.363312,-87.549025,-23.211776,-13.488428,0
28:42.5,0.854274,3.01039,5.147196,0.380145,-0.060344,0.164215,9.296257,-32.198128,-29.407715,-89.291037,-25.898232,-12.258686,0
28:42.6,2.352358,5.779931,6.012996,1.08573,0.33045,-0.160891,11.424637,-33.745346,-26.920288,-88.873651,-29.414649,-9.90604,0
28:42.7,4.122876,7.392377,9.690399,0.177105,0.203727,0.02932,11.434166,-34.375206,-25.868591,-89.574644,-30.579382,-10.337436,0
28:42.8,5.024901,6.747818,10.929971,0.476837,-0.992227,-0.422249,11.364182,-34.703484,-25.962006,-86.569333,-33.737658,-13.639971,0
28:42.9,1.613644,5.331014,6.515501,0.234421,0.144742,-0.462638,13.505592,-34.567673,-24.563629,-82.133315,-36.594978,-13.342967,0
28:43.0,0.01422,3.51035,4.518953,0.107794,-0.026099,-0.433949,15.609032,-34.758568,-24.055542,-78.049709,-38.651726,-11.942296,0
28:43.1,-0.823138,6.45353,5.154082,0.916154,-0.407806,-1.075961,19.479595,-34.870453,-21.024628,-71.563998,-44.623978,-8.466177,0
28:43.2,0.187261,7.718549,7.171736,0.424602,0.679874,-0.05255,16.775745,-35.538437,-21.32251,-77.029956,-41.180153,-11.116118,0
28:43.3,-0.981659,4.705764,14.134357,-2.106686,0.450125,1.740854,13.275177,-32.886894,-27.835419,-84.547029,-27.12141,-10.580637,0
28:43.4,0.420027,4.605772,8.94435,-1.572059,0.252703,0.998041,12.397446,-33.212936,-28.294464,-88.637129,-23.86671,-8.264699,0
28:43.5,2.888244,3.502716,4.949757,0.576667,0.858438,1.413772,8.699844,-36.565262,-24.974335,-99.052015,-26.519182,-9.479642,0
28:43.6,6.393056,3.554658,6.374644,1.002703,0.799904,1.462004,3.984367,-38.976089,-22.158264,-107.976041,-28.959785,-12.402836,0
28:43.7,5.832322,6.38138,11.712993,-0.105044,-0.024778,0.099371,4.834122,-38.080544,-24.093323,-103.092033,-27.178108,-13.871249,0
28:43.8,3.394192,3.334616,10.711425,-0.145176,-0.532613,-1.001609,7.025253,-37.349564,-23.406067,-96.635892,-29.045774,-14.987335,0
28:43.9,0.354014,3.076852,4.65981,0.34618,-0.840059,-1.362922,11.157898,-36.372314,-22.972168,-87.530465,-32.589592,-14.526468,0
28:44.0,-0.467927,5.846991,4.896168,0.797257,-0.568158,-2.122888,17.644428,-35.017609,-19.740997,-74.874198,-39.792127,-10.275995,0
28:44.1,-0.469723,6.193521,8.067623,0.310696,-0.580284,-1.113632,18.71484,-34.147163,-19.73587,-72.351031,-40.11078,-10.648101,0
28:44.2,0.114811,7.605983,12.168945,-0.630659,-0.507164,0.511041,16.918659,-33.620949,-21.681335,-74.584793,-35.56685,-11.185316,0
28:44.3,-0.474064,6.321953,7.799082,-1.364476,0.842818,0.737063,16.897259,-32.232948,-23.568695,-75.552532,-31.222434,-9.762065,0
28:44.4,0.292043,3.880381,3.421285,0.908202,1.02278,-0.311449,18.438087,-33.688805,-19.643494,-76.583009,-35.228747,-6.176174,0
28:44.5,1.804048,7.084468,6.884334,0.597033,0.509014,0.234763,19.035454,-34.577736,-16.036774,-78.842424,-37.940498,-1.933613,0
28:44.6,5.454507,8.179141,8.85768,-0.151967,0.512959,0.911715,15.427059,-35.955078,-16.532349,-85.297206,-36.461579,-5.88145,0
28:44.7,3.853586,4.096531,13.297148,-0.275323,-0.786964,0.110857,14.337166,-34.946083,-18.154602,-85.232144,-33.900653,-8.63827,0
28:44.8,-0.082628,4.46761,8.320597,0.33148,-0.900622,-1.141464,17.99575,-33.470169,-16.397552,-76.662117,-37.611036,-8.400787,0
28:44.9,-0.44233,3.703748,2.8134,0.171059,-0.572192,-0.676345,20.812138,-32.18325,-15.557098,-70.197669,-41.472084,-8.649901,0
28:45.0,-1.374142,6.946006,6.978039,0.830868,-0.38436,-1.335719,23.68766,-30.022598,-13.575348,-62.802845,-44.390942,-3.94798,0
28:45.1,-0.44248,8.031997,8.627758,-0.147087,0.321976,0.228593,21.542271,-30.428055,-14.450073,-66.132062,-41.571921,-5.693255,0
28:45.2,-2.820285,5.62156,11.483969,-0.885009,0.734945,0.718262,19.371067,-30.308548,-16.236206,-71.049405,-35.216141,-4.254482,0
28:45.3,-0.849184,4.65502,5.575156,0.124377,-0.101155,-0.398783,20.223839,-30.76548,-14.368225,-70.904052,-36.874979,-0.894324,0
28:45.4,1.710194,5.431904,3.719166,0.407556,0.515794,0.345797,19.725418,-31.211861,-12.009613,-72.572306,-39.652224,2.086327,0
28:45.5,3.193459,7.399413,8.171058,0.39888,0.895381,0.229465,17.817284,-32.002846,-11.817932,-75.713184,-41.005386,1.614114,0
28:45.6,4.856501,8.552166,11.335478,0.214878,-0.911664,0.443491,14.616348,-32.195435,-13.969482,-78.157391,-40.212049,-6.488414,0
28:45.7,0.185764,5.754184,8.530311,-1.062628,-0.473145,0.56097,14.033684,-31.928139,-18.139679,-75.574186,-36.1662,-10.788417,0
28:45.8,-1.43312,3.900738,4.53003,-0.493964,-0.273629,-0.77839,18.59721,-30.046684,-19.186737,-67.724292,-37.495745,-8.410483,0
28:45.9,-0.856818,5.735323,4.351601,1.389331,-0.524445,-1.721658,22.675125,-28.467087,-18.097076,-59.987879,-44.516723,-5.347022,0
28:46.0,-0.169747,6.913523,6.016289,0.285273,0.006918,0.355077,18.779549,-28.3592,-21.018738,-66.534084,-43.063103,-10.481551,0
28:46.1,-0.953817,5.965395,16.947607,-1.080918,0.300678,1.377418,12.386497,-25.821381,-25.797882,-74.978136,-32.15945,-10.968526,0
28:46.2,1.105302,3.880231,8.095316,-1.785722,0.083032,1.511492,8.371201,-25.217224,-27.316406,-80.316386,-28.059511,-13.699017,0
28:46.3,1.258732,3.79401,2.453248,0.857695,0.774094,0.502924,7.59597,-28.315392,-23.374481,-84.992363,-33.660276,-13.356172,0
